subject,metaphor_id,response,met_type,conceptual,nm,trial_order,met_stim,met_RT,age,sex,hand,collegeYear,SES,language_group,lang_dist,LD_rev,LD_inverse,englishAgeofOnset,AT,NFC,letter_sets,WMC,GK,LA,word_gen_pca,source_similarity_lsa,source_similarity_word2vec
1,nm2,Having to consume natto is like trying to force a DVD into a cassette player.,novel,5,5,24,24,106700,19,f,right,4,3,english,,0,0,0,14,10,7,49,20,9,15.5183436,0.010888442,-0.099626481
3,nm5,Eating bony Korean fish was like eating a giant pile of tooth picks stuck inside a chunk of stinky gym sock.,novel,5,5,23,24,155148,30,m,left,7,3,english,,0,0,0,16,31,14,52,25,13,17.8412192,0.087930778,-0.006757272
4,nm8,Eating that turkey was like biting into a handful of playdough,novel,5,5,24,24,87881,19,f,right,3,3,english,,0,0,0,3,14,7,54,23,9,16.6758334,0.028007263,-0.032830574
6,nm11,"Each and every day, that class felt like the waiting room at a DeKalb County hospital. I was dying inside and no one would ever call my name.",novel,5,5,23,23,77965,27,m,right,7,3,english,,0,0,0,13,28,9,52,26,12,21.2986889,,
6,nm12,"The last time I had sour milk on my granola cereal, it tasted like a Trojan Horse made of copper. Thankfully, my defenses were raised in time and we blocked the onslaught.",novel,5,5,24,24,77315,27,m,right,7,3,english,,0,0,0,13,28,9,52,26,12,21.2986889,-0.024878622,-0.006574614
9,nm17,Eating pineapple pizza was like watching human centipede,novel,5,5,23,24,189239,21,m,right,2,2,bilingual,1,3,1,6,11,0,8,37,24,9,17.303136,0.073619843,0.080082073
9,nm18,Being in that class was like being a cashier without customers,novel,5,5,24,23,173317,21,m,right,2,2,bilingual,1,3,1,6,11,0,8,37,24,9,17.303136,,
13,nm25,Being in that class was like being brought to the worlds largest amusement park but not being allowed on any of the rides,novel,5,5,23,23,46421,21,m,ambi,4,3,english,,0,0,0,12,17,14,38,22,11,23.5891927,,
15,nm29,Eating raw avocados was like changing a baby's diaper,novel,5,5,23,24,55093,27,f,right,6,3,english,,0,0,0,17,40,7,53,19,8,18.4195702,0.007208197,0.049073704
16,nm32,Taking the class was like going to the dentist every week,novel,5,5,24,23,16516,26,m,right,6,4,bilingual,,0,0,0,11,37,10,37,27,12,34.5091566,,
19,nm38,Being in that class was like watching the same episode of Friends 20 times without a break.,novel,5,5,24,23,73851,33,f,right,7,2,non-english,2.5,1.5,0.4,14,13,36,10,41,19,10,17.8917509,,
20,nm39,Being in that class was like having root canal surgery while the TV was on CSPAN.,novel,5,5,23,23,80804,45,f,right,6,3,non-english,2.5,1.5,0.4,11,17,24,14,39,22,11,13.2096799,,
22,nm43,Being in my most recent film class was like having to hear that the Falcons lost by listening to it on the radio rather than the TV.,novel,5,5,23,23,80463,19,f,left,3,2,english,,0,0,0,10,23,10,33,27,12,23.546557,,
30,nm60,Drinking the concoction that my friends dared me to drink once was like trying to swallow a cat whole,novel,5,5,24,24,43612,20,m,left,2,3,english,,0,0,0,9,35,14,41,23,11,23.5710328,0.222634642,0.180089622
31,nm61,Eating cafeteria pizza was like trying to swallow an old tennis shoe with ketchup on it.,novel,5,5,23,24,63509,43,f,left,7,3,english,,0,0,0,9,60,12,58,27,10,19.5383723,-0.021947557,-0.011875247
31,nm62,"Being in that class was like rolling a rock up a hill every day, only to watch it fall back down again.",novel,5,5,24,23,52110,43,f,left,7,3,english,,0,0,0,9,60,12,58,27,10,19.5383723,,
37,nm73,being in that class was like waiting for your mom to stop talking to her friend she ran into at kroger because you haven't eaten since breakfast and you may or may not pass out if she doesn't feed you in the next 5 minutes. ,novel,5,5,23,23,99734,19,f,right,3,3,english,,0,0,0,10,6,14,43,19,10,21.3231647,,
37,nm74,eating flan was like watching a nasty hormonal boy stick his hands down his pants and then smell them. ,novel,5,5,24,24,73930,19,f,right,3,3,english,,0,0,0,10,6,14,43,19,10,21.3231647,0.209721734,0.275848514
44,nm84,Eating kale is like mowing the lawn with your mouth.,novel,5,5,24,24,170031,24,f,right,6,2,english,,0,0,0,8,26,6,53,20,11,20.7487617,0.191686969,0.024833318
60,nm118,Being in that class was like pulling all of the straw off of a pine tree one by one.,novel,5,5,24,23,45402,18,f,right,2,2,english,,0,0,0,7,64,6,32,23,7,18.9134376,,
61,nm120,being in that class was like lining in the post office when two hundred people are before your turn and you do not even have a magazine to read,novel,5,5,24,23,127022,21,m,right,3,3,non-english,2.5,1.5,0.4,6,15,3,10,50,16,12,16.6576735,,
11,nm22,"Attending that class was like having a sleepover with all my friends, except our pillows were textbooks.",novel,5,4.75,24,23,116116,21,f,right,3,3,bilingual,,0,0,0,17,18,9,62,19,12,20.6571744,,
22,nm44,Eating Passover horseradish was like watching a fire happen but still walking through the flames.,novel,5,4.75,24,24,51623,19,f,left,3,2,english,,0,0,0,10,23,10,33,27,12,23.546557,0.156746934,0.092576685
28,nm55,Eating uncooked chicken was like charcoal.,novel,5,4.75,23,24,188888,21,f,right,3,2,bilingual,2.75,1.25,0.363636364,6,21,4,7,20,13,2,9.6914146,-0.019824148,-0.083892325
43,nm82,Being in that class made me feel like I was watching my own toenails grow.,novel,5,4.75,24,23,98489,26,f,right,6,3,english,,0,0,0,11,21,10,56,26,11,26.4825233,,
54,nm105,being in that biology class was like assisting to wedding in a church,novel,5,4.75,23,23,74948,21,f,right,4,3,non-english,2.5,1.5,0.4,10,13,4,13,44,11,9,13.179676,,
55,nm107,Having to focus in that class for a whole hour was like trying to fit a camel through a needle head.,novel,5,4.75,23,23,62980,17,f,right,1,4,bilingual,2.75,1.25,0.363636364,1,6,20,9,58,14,4,26.9945506,,
5,nm10,That meal was like eating boogers on a biscuit. ,novel,4.5,4.5,24,24,16165,21,m,right,3,4,english,,0,0,0,7,-11,4,55,27,5,12.6494888,0.056047424,-0.064920766
10,nm19,Drinking spoiled milk is like Hiroshima,novel,5,4.5,23,24,84176,20,m,ambi,2,3,non-english,1.5,2.5,0.666666667,5,20,8,9,33,18,7,12.0285021,0.132150512,0.167956965
17,nm34,Being in that class was like being the last intelligent person on earth.,novel,4.5,4.5,24,23,58357,28,f,right,7,3,english,,0,0,0,10,41,9,48,24,11,16.7145211,,
21,nm41,Being in the class was like waiting on death row.,novel,5,4.5,23,23,32420,63,f,right,7,3,english,,0,0,0,12,4,6,53,14,6,14.3024261,,
23,nm45,"Swallowing the medicine was like waking early for work, necessary but unpleasant. ",novel,5,4.5,23,24,246275,19,f,right,4,2,english,,0,0,0,12,-9,10,35,27,6,18.9884451,-0.101787375,0.093638136
23,nm46,Sitting in that lecture was like watching an episode of the Jersey Shore. ,novel,5,4.5,24,23,74751,19,f,right,4,2,english,,0,0,0,12,-9,10,35,27,6,18.9884451,,
29,nm57,Eating shrimp and pasta without any sauce to cover the flavor was like drinking water from La Seine in Paris,novel,4.5,4.5,23,24,46878,22,m,right,4,3,bilingual,2.25,1.75,0.444444444,5,12,-3,14,40,19,9,29.3434821,-0.044729881,-0.149194946
40,nm87,Taking the professor's class was like being stuck in prison for million years.,novel,5,4.5,23,23,60123,24,m,right,6,3,bilingual,1,3,1,17,8,15,8,40,18,12,14.9581525,,
48,nm96,Being in that class was like sharing a room with a robot.,novel,4,4.5,24,23,98222,28,f,right,7,3,non-english,1,3,1,12,14,5,7,33,12,12,10.3045053,,
52,nm122,eating some insects is like you can never get your hand clean for those who are neat freak,novel,4.5,4.5,24,24,91459,32,f,right,7,3,non-english,1.5,2.5,0.666666667,11,24,17,7,28,19,7,14.4216494,0.137441279,0.107977699
53,nm103,Being in that class was like being in the worst movie in the theater.,novel,5,4.5,23,23,90231,17,f,right,1,3,bilingual,1.5,2.5,0.666666667,9,25,44,6,32,12,8,17.8593791,,
53,nm104,Eating left-over chicken was like eating paper with some salt on it.,novel,5,4.5,24,24,40328,17,f,right,1,3,bilingual,1.5,2.5,0.666666667,9,25,44,6,32,12,8,17.8593791,0.042244842,0.002790823
57,nm112,"Drinking neat Vodka is drinking a explosion, it was burning my stomach.",novel,5,4.5,24,24,77628,28,f,right,1,3,non-english,1.25,2.75,0.8,11,15,24,5,28,10,5,12.0971937,0.19524055,0.090789326
59,nm115,drinking this sweet beverage was like trying to repair a boat amid the ocean : you are desperately trying to get the liquid away ,novel,4.5,4.5,23,24,235713,22,f,right,6,4,non-english,2.5,1.5,0.4,12,14,20,12,61,22,7,22.405647,0.091145271,-0.082166109
60,nm117,Eating octopus was like chewing on the sole of my shoe.,novel,5,4.5,23,24,44730,18,f,right,2,2,english,,0,0,0,7,64,6,32,23,7,18.9134376,-0.014211719,-0.012365178
61,nm119,eating those eggplants cooked by Elizabeth was like chewing burned plastic,novel,5,4.5,23,24,138711,21,m,right,3,3,non-english,2.5,1.5,0.4,6,15,3,10,50,16,12,16.6576735,0.024161895,-0.019879825
16,nm31,"For me, eating scallops is like plunging into a swamp of brine and death",novel,4.5,4.25,23,24,24522,26,m,right,6,4,bilingual,,0,0,0,11,37,10,37,27,12,34.5091566,0.099674831,0.012146801
27,nm54,Being in class was like watching a snail move. ,novel,5,4.25,24,23,52338,31,m,left,5,2,english,,0,0,0,21,36,6,52,20,10,15.4741278,,
36,nm71,Eating a dessert from Bangladesh was like eating very sweet marshmallows dipped in cow poop,novel,4.5,4.25,23,24,56849,20,f,right,3,2,bilingual,2.25,1.75,0.444444444,3,6,18,10,23,23,10,14.8934089,0.037175455,-0.000600711
44,nm83,Taking AP Chem was like shoving bamboo shoots under my fingernails to pass the time.,novel,5,4.25,23,23,54221,24,f,right,6,2,english,,0,0,0,8,26,6,53,20,11,20.7487617,,
47,nm94,Eating it was like I had to chew a bunch of newspaper in my mouth.,novel,5,4.25,24,24,113057,39,f,right,6,4,non-english,1,3,1,12,23,45,12,50,23,11,17.2076007,0.310060193,0.239622885
24,nm47,Eating papaya was like eating a wet slime covered tissue ,novel,4.5,4,23,24,69364,23,m,right,6,3,english,,0,0,0,12,20,6,42,21,7,16.0651106,0.100573592,0.018235496
29,nm58,Being in Trigonometry was like talking to my grandmother about her niece's husband's dog's friend's sister's son,novel,5,4,24,23,47748,22,m,right,4,3,bilingual,2.25,1.75,0.444444444,5,12,-3,14,40,19,9,29.3434821,,
30,nm59,The class was like being at a how to be redundant advanced course,novel,2.5,4,23,23,57939,20,m,left,2,3,english,,0,0,0,9,35,14,41,23,11,23.5710328,,
33,nm66,Being in that class was like watching mold grow on cheese. ,novel,5,4,24,23,98957,27,f,right,6,2,english,,0,0,0,13,25,6,37,21,7,14.4058574,,
36,nm72,Microeconomics was like having to wait in line at the DMV ,novel,5,4,24,23,42095,20,f,right,3,2,bilingual,2.25,1.75,0.444444444,3,6,18,10,23,23,10,14.8934089,,
45,nm89,Drinking the soda Beverly was like drinking battery acid,novel,5,4,23,24,32553,20,f,right,3,2,english,,0,0,0,4,38,12,39,23,6,14.9336767,0.086994493,-0.057100783
46,nm91,Being in that class was like floating around the Universe.,novel,5,4,23,23,36452,35,f,right,7,3,non-english,1,3,1,9,24,40,12,43,23,13,17.8372712,,
47,nm93,Being in that class was like I was on my knees listening to what my mother-in-law talks to me about how she thinks I'm different than her own family.,novel,4.5,4,23,23,197166,39,f,right,6,4,non-english,1,3,1,12,23,45,12,50,23,11,17.2076007,,
49,nm97,Eating fried chiken feet was like licking somebody's dirty foot.,novel,5,4,23,24,166106,33,f,right,7,3,non-english,1,3,1,12,12,5,13,46,16,11,18.4219381,-0.020171692,-0.007933599
2,nm3,Being in that class was like watching a history documentary.,novel,3.5,3.5,23,23,224674,22,f,right,4,3,english,,0,0,0,12,-5,8,46,17,6,23.0447936,,
5,nm9,That class was a boring as reading Catcher in the Rye twice in one day.,novel,5,3.5,23,23,115202,21,m,right,3,4,english,,0,0,0,7,-11,4,55,27,5,12.6494888,,
12,nm24,Eating the salad at that restaurant was like eating a bag of salt.,novel,4.5,3.5,24,24,134920,20,f,right,2,3,bilingual,1.75,2.25,0.571428571,2,15,11,13,38,20,12,16.0224749,0.004430972,-0.091637138
13,nm26,Drinking vinegar shots was like intentionally poisoning yourself in the futile hope that it will help you in the long run,novel,3.5,3.5,24,24,95313,21,m,ambi,4,3,english,,0,0,0,12,17,14,38,22,11,23.5891927,0.053504422,-0.002759909
14,nm27,Eating kale was like eating trash.,novel,5,3.5,23,24,40003,24,f,right,4,1,english,,0,0,0,19,8,5,33,9,5,10.7999528,0.125747693,0.091548601
27,nm53,Eating pho soup was like eating from a toilet. ,novel,5,3.5,23,24,53245,31,m,left,5,2,english,,0,0,0,21,36,6,52,20,10,15.4741278,0.088742968,0.082211006
33,nm65,Eating raw osters was like drinking sea mucus. ,novel,3.5,3.5,23,24,43882,27,f,right,6,2,english,,0,0,0,13,25,6,37,21,7,14.4058574,-0.016972099,-0.03873403
35,nm70,Being in that class was like waiting for my mom shop for hours,novel,5,3.5,24,23,32951,20,f,right,3,3,non-english,2,2,0.5,10,12,-7,9,30,12,3,16.0887986,,
40,nm88,Eating stinky tofu in Taipei was like tasting horse shit.,novel,5,3.5,24,24,48667,24,m,right,6,3,bilingual,1,3,1,17,8,15,8,40,18,12,14.9581525,0.092684018,0.008168953
42,nm80,It was like been tied to a chair in a dark room for two days,novel,4.5,3.5,24,23,112374,38,f,right,6,2,non-english,2.25,1.75,0.444444444,8,16,5,14,36,16,7,20.1577789,,
54,nm106,drinking this medicine was like eating earth,novel,5,3.5,24,24,82651,21,f,right,4,3,non-english,2.5,1.5,0.4,10,13,4,13,44,11,9,13.179676,0.0868527,0.029214303
55,nm108,Drinking coconut water was like consciously drinking poison out of kindness.,novel,5,3.5,24,24,61687,17,f,right,1,4,bilingual,2.75,1.25,0.363636364,1,6,20,9,58,14,4,26.9945506,0.11700033,0.155470835
56,nm110,Eating Tofu was like eating a trash for me,novel,5,3.5,24,24,83520,19,m,left,1,3,non-english,2.25,1.75,0.444444444,5,15,10,12,34,15,11,10.3124013,0.119056284,0.069630157
58,nm113,Being in that class was like having to experience Dante's Inferno.,novel,5,3.5,23,23,29368,34,f,left,7,3,bilingual,1.25,2.75,0.8,3,24,55,6,62,19,8,23.0447936,,
3,nm6,Being in that class was like being forced to stay awake as my brain is being drilled into by a man discussing the deep literary meaning of Ayn Rand.,novel,4.5,3.25,24,23,77724,30,m,left,7,3,english,,0,0,0,16,31,14,52,25,13,17.8412192,,
34,nm68,Being in that class was like waiting to get out of prison. ,novel,5,3.25,24,23,48692,21,f,right,3,3,non-english,1.25,2.75,0.8,5,12,-1,11,29,19,9,14.3979614,,
35,nm69,Eating a rotten mango was like swallowing a whole trash can,novel,5,3.25,23,24,81894,20,f,right,3,3,non-english,2,2,0.5,10,12,-7,9,30,12,3,16.0887986,0.278538633,0.204067876
39,nm85,Eating a frog was like a nightmare,novel,5,3.25,23,24,99002,36,f,right,7,3,non-english,1,3,1,10,14,22,6,29,13,12,18.4298341,0.072198055,0.034446287
42,nm79,It was like trying to swallow sandpaper,novel,5,3.25,23,24,55814,38,f,right,6,2,non-english,2.25,1.75,0.444444444,8,16,5,14,36,16,7,20.1577789,0.197752749,0.111176588
19,nm37,Eating calamari was like chewing on a live snail.,novel,3.5,3,23,24,70636,33,f,right,7,2,non-english,2.5,1.5,0.4,14,13,36,10,41,19,10,17.8917509,0.072160764,0.00856415
25,nm49,Being in that class was like staring at a brick wall for 90 minutes. ,novel,5,3,23,23,33921,19,f,right,1,3,bilingual,1,3,1,3,20,10,5,15,18,6,17.1918087,,
32,nm63,Drinking this vinegar drink that I bought from Whole Foods the other day was like pouring bleach down my throat.,novel,4.5,3,23,24,54592,20,f,right,2,3,english,,0,0,0,9,18,10,49,19,3,18.3935143,0.181542568,0.051374427
38,nm76,Drinking Beverly was like the feeling of throwing up without actually doing it.,novel,4.5,3,24,24,39895,19,m,right,3,4,english,,0,0,0,14,4,11,56,24,11,13.2080998,0.306326157,0.293369976
39,nm86,Being in that class was like living in the never-ending land ,novel,5,3,24,23,61931,36,f,right,7,3,non-english,1,3,1,10,14,22,6,29,13,12,18.4298341,,
7,nm13,Drinking buttermilk was like swallowing a dozen rotten eggs.,novel,3,2.75,23,24,90905,21,f,left,4,3,english,,0,0,0,15,27,12,60,26,12,23.0550575,0.10265707,0.034382284
18,nm35,Being in that class was like listening to a school principle's speech for ten hours. ,novel,3,2.75,23,23,88823,27,f,right,7,3,non-english,1,3,1,9,11,12,13,26,21,13,17.7804236,,
25,nm50,Eating an expired sandwich was like biting into a rotten piece of meat.,novel,2.5,2.75,24,24,77832,19,f,right,1,3,bilingual,1,3,1,3,20,10,5,15,18,6,17.1918087,0.030562584,-0.010146487
26,nm52,eating that was like eating the dirt,novel,4.5,2.75,24,24,48390,19,f,right,1,3,non-english,1.5,2.5,0.666666667,4,14,30,8,31,16,8,10.9033841,0.095721111,0.075335211
32,nm64,Sitting in Mrs. Rogers US history class was like scratching nails on a chalkboard.,novel,4.5,2.75,24,23,54248,20,f,right,2,3,english,,0,0,0,9,18,10,49,19,3,18.3935143,,
43,nm81,"Drinking that soda was like dipping my taste buds in vinegar, then adding salt and sugar to the mix, just to be safe.",novel,3.5,2.75,23,24,49882,26,f,right,6,3,english,,0,0,0,11,21,10,56,26,11,26.4825233,0.01002563,-0.07491246
46,nm92,Eating the food was like biting worms.,novel,4.5,2.75,24,24,55511,35,f,right,7,3,non-english,1,3,1,9,24,40,12,43,23,13,17.8372712,0.042341954,-0.01303223
58,nm114,Eating okra was like having to force yourself to eat your own vomit.,novel,4.5,2.75,24,24,32334,34,f,left,7,3,bilingual,1.25,2.75,0.8,3,24,55,6,62,19,8,23.0447936,0.110400709,0.1662363
59,nm116,being in that class was a never ended struggle betweem two open eyes and two closed eyes,novel,3.5,2.75,24,23,168038,22,f,right,6,4,non-english,2.5,1.5,0.4,12,14,20,12,61,22,7,22.405647,,
1,nm1,"Sitting through that class was like hell, honestly.",novel,5,2.5,23,23,42039,19,f,right,4,3,english,,0,0,0,14,10,7,49,20,9,15.5183436,,
11,nm21,Eating an oyster was akin to what I'd imagine eating a giant booger would be like.,novel,5,2.5,23,24,78246,21,f,right,3,3,bilingual,,0,0,0,17,18,9,62,19,12,20.6571744,0.121201574,0.018928697
18,nm36,Eating goat cheese was like eating rotten milk. ,novel,2.5,2.5,24,24,46646,27,f,right,7,3,non-english,1,3,1,9,11,12,13,26,21,13,17.7804236,0.053172733,0.033943458
20,nm40,I had a drink at the World of Coca Cola that was so gross that drinking it was like drinking sewer.,novel,5,2.5,24,24,153807,45,f,right,6,3,non-english,2.5,1.5,0.4,11,17,24,14,39,22,11,13.2096799,0.154711269,0.028300403
28,nm56,Being in history class was like talking to a brick wall.,novel,5,2.5,24,23,91304,21,f,right,3,2,bilingual,2.75,1.25,0.363636364,6,21,4,7,20,13,2,9.6914146,,
41,nm77,Eating this Pakistany dessert was like chewing sugar,novel,2.5,2.5,23,24,166849,38,f,right,6,3,non-english,2.25,1.75,0.444444444,5,19,32,12,49,25,6,13.2357358,0.006493077,-0.05449105
2,nm4,The most digusting thing I have ever eaten was one of those Bean Boozled jelly beans in the flavor of vomit. Eating that jelly bean was like eating shit.,novel,4.5,2.25,24,24,102941,22,f,right,4,3,english,,0,0,0,12,-5,8,46,17,6,23.0447936,0.080029873,0.048430053
4,nm7,That class was a never-ending nightmare,novel,5,2.25,23,23,150315,19,f,right,3,3,english,,0,0,0,3,14,7,54,23,9,16.6758334,,
8,nm15,eating it was like swallowing a mouthfull of rotten eggs,novel,2.5,2.25,23,24,45862,24,f,right,4,2,english,,0,0,0,7,3,8,30,19,8,17.2241805,0.092747727,0.08340489
8,nm16,being in that class was like a battle fighting to keep my eyelids open.,novel,5,2.25,24,23,29454,24,f,right,4,2,english,,0,0,0,7,3,8,30,19,8,17.2241805,,
15,nm30,Being in my French class was like starring at a blank wall for 2 hours,novel,5,2.25,24,23,66652,27,f,right,6,3,english,,0,0,0,17,40,7,53,19,8,18.4195702,,
17,nm33,Drinking straight absinthe was like drinking fire.,novel,4.5,2.25,23,24,49326,28,f,right,7,3,english,,0,0,0,10,41,9,48,24,11,16.7145211,0.17944636,0.037999204
21,nm42,The taste of poor is like eating poison.,novel,4,2.25,24,24,48256,63,f,right,7,3,english,,0,0,0,12,4,6,53,14,6,14.3024261,0.148422526,0.150502146
26,nm51,being in that class was like i was a criminal in the prison,novel,5,2.25,23,23,62763,19,f,right,1,3,non-english,1.5,2.5,0.666666667,4,14,30,8,31,16,8,10.9033841,,
34,nm67,Drinking medicine was like trying to drink mud. ,novel,5,2.25,23,24,114942,21,f,right,3,3,non-english,1.25,2.75,0.8,5,12,-1,11,29,19,9,14.3979614,0.136180604,0.085822498
48,nm95,Eating a bug was like killing myself.,novel,5,2.25,23,24,40765,28,f,right,7,3,non-english,1,3,1,12,14,5,7,33,12,12,10.3045053,0.122525699,0.083005418
49,nm98,Being in that class was like reading a philosophy book to make me sleepy at night. ,novel,5,2.25,24,23,26681,33,f,right,7,3,non-english,1,3,1,12,12,5,13,46,16,11,18.4219381,,
56,nm109,Being in that class was like watching paint dry for 2 consecutive hours,novel,5,2.25,23,23,98855,19,m,left,1,3,non-english,2.25,1.75,0.444444444,5,15,10,12,34,15,11,10.3124013,,
7,nm14,Being in that class was like watching paint dry on a wall.,novel,5,2,24,23,81576,21,f,left,4,3,english,,0,0,0,15,27,12,60,26,12,23.0550575,,
10,nm20,Being in csc class is like being in csc class,novel,1.5,2,24,23,23449,20,m,ambi,2,3,non-english,1.5,2.5,0.666666667,5,20,8,9,33,18,7,12.0285021,,
12,nm23,Being in that class was like watching paint dry.,novel,5,2,23,23,77204,20,f,right,2,3,bilingual,1.75,2.25,0.571428571,2,15,11,13,38,20,12,16.0224749,,
14,nm28,Being in that class was like watching the grass grow.,novel,5,2,24,23,21312,24,f,right,4,1,english,,0,0,0,19,8,5,33,9,5,10.7999528,,
24,nm48,Taking astronomy was like staring a blank wall ,novel,5,2,24,23,128307,23,m,right,6,3,english,,0,0,0,12,20,6,42,21,7,16.0651106,,
45,nm90,Being in that class was like watching grass grow,novel,5,2,24,23,13270,20,f,right,3,2,english,,0,0,0,4,38,12,39,23,6,14.9336767,,
1,cm3,Some relationships are like overly wrapped presents with nothing inside. ,conv,5,5,3,11,239255,19,f,right,4,3,english,,0,0,0,14,10,7,49,20,9,15.5183436,0.185985499,0.080040138
1,cm10,Some people are like turtles within their shells. ,conv,5,5,10,8,317590,19,f,right,4,3,english,,0,0,0,14,10,7,49,20,9,15.5183436,0.280684344,0.31921643
2,cm30,Certain Memories are similar to wedding cakes. ,conv,5,5,8,4,67316,22,f,right,4,3,english,,0,0,0,12,-5,8,46,17,6,23.0447936,,
2,cm33,Her beauty is similar to a whining toddler. ,conv,5,5,11,14,32354,22,f,right,4,3,english,,0,0,0,12,-5,8,46,17,6,23.0447936,0.015082641,0.104913713
2,cm35,"The Earth reminds me of Whole Foods on a weekend, crowded and determined. ",conv,5,5,13,18,57560,22,f,right,4,3,english,,0,0,0,12,-5,8,46,17,6,23.0447936,0.205035411,0.447577696
3,cm46,Getting an education is like having a shopping spree in a candy store. ,conv,5,5,2,19,57129,30,m,left,7,3,english,,0,0,0,16,31,14,52,25,13,17.8412192,0.114043655,0.072186198
3,cm47,Her smile is like a carcass on the side of the road to buzzards. ,conv,5,5,3,10,31473,30,m,left,7,3,english,,0,0,0,16,31,14,52,25,13,17.8412192,-0.061035154,-0.089506064
3,cm48,Some college lectures are like waiting on an airplane to take off ,conv,5,5,4,2,38724,30,m,left,7,3,english,,0,0,0,16,31,14,52,25,13,17.8412192,,
3,cm51,His temper is like a zit being popped by a teenage girl the day before prom. ,conv,5,5,7,13,41062,30,m,left,7,3,english,,0,0,0,16,31,14,52,25,13,17.8412192,-0.075849448,0.051892304
3,cm53,Love is like a toddler going through the terrible twos who just downed a pot of coffee. ,conv,5,5,9,3,49142,30,m,left,7,3,english,,0,0,0,16,31,14,52,25,13,17.8412192,-0.002751198,0.033731358
3,cm56,Some computer programs are like a peice of IKEA furniture that is missing the assembly instructions ,conv,5,5,12,7,72017,30,m,left,7,3,english,,0,0,0,16,31,14,52,25,13,17.8412192,0.201393101,0.193592595
3,cm59,Some relationships are like a constant jerk-off session. ,conv,5,5,15,11,28640,30,m,left,7,3,english,,0,0,0,16,31,14,52,25,13,17.8412192,0.220479703,0.075868124
3,cm61,Some jobs are like a leather gimp suit ,conv,5,5,17,1,23589,30,m,left,7,3,english,,0,0,0,16,31,14,52,25,13,17.8412192,-0.117106009,0.032100532
3,cm62,Her house is as pristine as a nun's vagina. ,conv,5,5,18,22,21282,30,m,left,7,3,english,,0,0,0,16,31,14,52,25,13,17.8412192,0.118528924,0.360950163
3,cm65,Colleges are as diverse as an Ultimate Supreme Pizza with extra toppings.  ,conv,5,5,21,16,33947,30,m,left,7,3,english,,0,0,0,16,31,14,52,25,13,17.8412192,-0.026775688,0.217543357
3,cm66,Some old men are like a turd that just won't shake loose.  ,conv,5,5,22,6,44469,30,m,left,7,3,english,,0,0,0,16,31,14,52,25,13,17.8412192,0.217243717,0.235644355
4,cm78,Love is like your first day at a brand new school ,conv,5,5,12,3,66141,19,f,right,3,3,english,,0,0,0,3,14,7,54,23,9,16.6758334,-0.074406692,-0.063465081
4,cm79,Some teenagers are like squirrels on aderol ,conv,5,5,13,12,27823,19,f,right,3,3,english,,0,0,0,3,14,7,54,23,9,16.6758334,0.011145315,0.125747976
4,cm83,Some jobs are like a jealous boyfriend ,conv,5,5,17,1,12549,19,f,right,3,3,english,,0,0,0,3,14,7,54,23,9,16.6758334,-0.163268355,-0.091784321
4,cm84,Some computer programs and like trying to have a conversation with a baby ,conv,5,5,18,7,28075,19,f,right,3,3,english,,0,0,0,3,14,7,54,23,9,16.6758334,0.21376423,0.271209045
5,cm90,Some computer programs are harder to use than staying up 48 hours and trying to climb Everest.  ,conv,5,5,2,7,77335,21,m,right,3,4,english,,0,0,0,7,-11,4,55,27,5,12.6494888,0.397452892,0.450344439
5,cm92,Divorice destroys many like cake destroyed Star Jone's arms. ,conv,5,5,4,17,32853,21,m,right,3,4,english,,0,0,0,7,-11,4,55,27,5,12.6494888,0.270945528,0.35841643
5,cm94,Her radiant teeth made other flock to her like a bunch of geese flock to a lake. ,conv,5,5,6,10,33660,21,m,right,3,4,english,,0,0,0,7,-11,4,55,27,5,12.6494888,0.065751891,0.265063143
5,cm95,Occupations can be a confining as a Disney kids are with their carreers. ,conv,5,5,7,1,43648,21,m,right,3,4,english,,0,0,0,7,-11,4,55,27,5,12.6494888,-0.007983449,0.263142537
5,cm96,Caring for someone can be as rough as dating a hot girl with a bad laugh.  ,conv,4.5,5,8,3,42068,21,m,right,3,4,english,,0,0,0,7,-11,4,55,27,5,12.6494888,-0.162745829,0.035739591
5,cm98,Adolecents never stop just as that couple next door to you who have really loud sex 24/7 but never shuts the fuck up. ,conv,5,5,10,12,86807,21,m,right,3,4,english,,0,0,0,7,-11,4,55,27,5,12.6494888,0.223596801,0.372943539
5,cm100,Learning can propell you in life just like being shot out of a cannon can launch you so far. ,conv,5,5,12,19,56025,21,m,right,3,4,english,,0,0,0,7,-11,4,55,27,5,12.6494888,0.153958754,0.107081637
5,cm102,"The planet is always on the move, like a kid on speed. ",conv,5,5,14,18,54021,21,m,right,3,4,english,,0,0,0,7,-11,4,55,27,5,12.6494888,0.155322392,0.387593763
5,cm103,"His angry is like a male pornstar, you work him up till he explodes. ",conv,5,5,15,13,56308,21,m,right,3,4,english,,0,0,0,7,-11,4,55,27,5,12.6494888,0.103611267,0.156330848
5,cm104,Her home is clean as Queen Elizabeth the 1st vagina. ,conv,5,5,16,22,37012,21,m,right,3,4,english,,0,0,0,7,-11,4,55,27,5,12.6494888,0.257015989,0.316547951
5,cm105,Kinship can bring family together like experiments with the Mythbusters. ,conv,5,5,17,20,42360,21,m,right,3,4,english,,0,0,0,7,-11,4,55,27,5,12.6494888,0.180878377,0.221916567
5,cm106,University classes can be more monotonus than solitary confinement for 1000 years. ,conv,5,5,18,2,52910,21,m,right,3,4,english,,0,0,0,7,-11,4,55,27,5,12.6494888,,
5,cm108,Certain old timers are more obstinant than Bill O'Reily being forced to attend a gay strip club. ,conv,5,5,20,6,154945,21,m,right,3,4,english,,0,0,0,7,-11,4,55,27,5,12.6494888,-0.044278453,-0.050184128
6,cm111,Divorce is like a cloud of locusts descending upon the family's psyches. ,conv,5,5,1,17,64176,27,m,right,7,3,english,,0,0,0,13,28,9,52,26,12,21.2986889,0.290023362,0.248570066
6,cm113,"While normally a mild-mannered man, his temper was much like a pressure cooker left unattended over a gas stove. Those around him never stood a chance. ",conv,5,5,3,13,62542,27,m,right,7,3,english,,0,0,0,13,28,9,52,26,12,21.2986889,0.146961978,0.350082421
6,cm114,Friendship  is like an aquifer which the plants above maintain and cause each other to grow with. ,conv,5,5,4,20,220838,27,m,right,7,3,english,,0,0,0,13,28,9,52,26,12,21.2986889,0.07287341,0.288514875
6,cm116,"Cigarettes have consequences, just like a jailer who throws parties in the cell for decades, until one day, after you enter as normal, he finally locks you in and abandons you. ",conv,5,5,6,15,84632,27,m,right,7,3,english,,0,0,0,13,28,9,52,26,12,21.2986889,0.060534525,0.499656373
6,cm119,"Their love, separated by the Caribbean Sea, felt just like the disappearing of sandbars with the undertow. Neither one knew what tomorrow would bring.  ",conv,5,5,9,3,167760,27,m,right,7,3,english,,0,0,0,13,28,9,52,26,12,21.2986889,0.153324029,0.157632639
6,cm120,"The pressures of high school cause some teenagers to assume the behaviors of a ball in a pinball machine, constantly pushed by society's expectations, oft at the peril of falling past the flippers. ",conv,5,5,10,12,103772,27,m,right,7,3,english,,0,0,0,13,28,9,52,26,12,21.2986889,0.224658901,0.393971356
6,cm122,It would be easier to unravel a pile of snakes without getting bitten than it would to divine some people's inner thoughts. ,conv,5,5,12,8,111962,27,m,right,7,3,english,,0,0,0,13,28,9,52,26,12,21.2986889,0.610212662,0.335704654
6,cm123,"When using some computer programs, it can feel like someone is trying to insert a ham into the floppy disk drive of your mind. Make sure and slice each step thinly. Then you will be able to process all steps. ",conv,5,5,13,7,67191,27,m,right,7,3,english,,0,0,0,13,28,9,52,26,12,21.2986889,0.564628099,0.561101774
6,cm125,Imagine a box of sardines where all living things look the same and are dead. Now think of the exact opposite and that is what you will see in GSU's student body! ,conv,5,5,15,16,62238,27,m,right,7,3,english,,0,0,0,13,28,9,52,26,12,21.2986889,0.455240353,0.573073176
6,cm127,"Not even Lorelei, the Teutonic Siren known for singing songs that caused boatmen to capsize nightly, could have emitted a melody as arresting as her smile. ",conv,5,5,17,10,119806,27,m,right,7,3,english,,0,0,0,13,28,9,52,26,12,21.2986889,-0.052151812,-0.031043234
6,cm129,"It is as though, with some relationships, both halves of the couple leave each other famished in the wilderness. ",conv,5,5,19,11,47952,27,m,right,7,3,english,,0,0,0,13,28,9,52,26,12,21.2986889,0.306647427,0.237387811
6,cm132,Some of the old men were like stone monoliths in a hurricane. They would never budge an inch until the roots below were thrust out and they collapsed once and for all. ,conv,5,5,22,6,102088,27,m,right,7,3,english,,0,0,0,13,28,9,52,26,12,21.2986889,0.11432513,0.043752394
7,cm143,Love is like a toddler that's hungry and needs a nap. ,conv,5,5,11,3,91507,21,f,left,4,3,english,,0,0,0,15,27,12,60,26,12,23.0550575,0.139289033,0.04428367
7,cm145,His temper is like popping open a bottle of champagne. ,conv,5,5,13,13,58064,21,f,left,4,3,english,,0,0,0,15,27,12,60,26,12,23.0550575,0.010426107,0.162861319
7,cm147,The Earth is as crowded as I-85 at 5 o'clock. ,conv,5,5,15,18,117055,21,f,left,4,3,english,,0,0,0,15,27,12,60,26,12,23.0550575,0.108033923,0.219543937
7,cm150,Cigarettes are like a lion waiting to attack its prey. ,conv,5,5,18,15,37459,21,f,left,4,3,english,,0,0,0,15,27,12,60,26,12,23.0550575,0.329152015,0.281028653
7,cm152,Some relationships are like baking a cake and having no one to share it with. ,conv,5,5,20,11,71357,21,f,left,4,3,english,,0,0,0,15,27,12,60,26,12,23.0550575,0.107017806,0.027434878
9,cm195,Friendship is like a tough stain ,conv,5,5,19,20,12323,21,m,right,2,2,bilingual,1,3,1,6,11,0,8,37,24,9,17.303136,0.14932293,0.134534773
10,cm208,Love is like schrodinger's cat ,conv,5,5,10,3,96879,20,m,ambi,2,3,non-english,1.5,2.5,0.666666667,5,20,8,9,33,18,7,12.0285021,-0.02419292,-0.050399535
10,cm210,Some college lectures are like life without wifi ,conv,5,5,12,2,42309,20,m,ambi,2,3,non-english,1.5,2.5,0.666666667,5,20,8,9,33,18,7,12.0285021,,
11,cm227,Some relationships are like staying in on a Friday to study and getting a C on the test. ,conv,5,5,7,11,76356,21,f,right,3,3,bilingual,,0,0,0,17,18,9,62,19,12,20.6571744,0.036716638,-0.087556699
11,cm236,Some teenagers remind me of hyperactive cats exposed to catnip. ,conv,5,5,16,12,37239,21,f,right,3,3,bilingual,,0,0,0,17,18,9,62,19,12,20.6571744,0.036622481,0.090840948
11,cm240,Smoking cigarettes is like willingly walking around at night in a neighborhood notorious for gangs. ,conv,5,5,20,15,88402,21,f,right,3,3,bilingual,,0,0,0,17,18,9,62,19,12,20.6571744,0.040928964,0.222485366
12,cm254,Love is like taking an exam without a study guide. ,conv,5,5,12,3,52388,20,f,right,2,3,bilingual,1.75,2.25,0.571428571,2,15,11,13,38,20,12,16.0224749,0.028648468,0.025641548
13,cm267,Love is like predicting where a rock in an avalanche will end up after falling for a thousand feet. ,conv,5,5,3,3,52383,21,m,ambi,4,3,english,,0,0,0,12,17,14,38,22,11,23.5891927,0.017458763,0.075782623
13,cm269,Her smile is like a feast to a starving man. ,conv,5,5,5,10,52795,21,m,ambi,4,3,english,,0,0,0,12,17,14,38,22,11,23.5891927,-0.021472479,-0.067648754
13,cm270,Some Computer Programs are like Rube Goldberg machines that clean your house ,conv,5,5,6,7,181919,21,m,ambi,4,3,english,,0,0,0,12,17,14,38,22,11,23.5891927,0.211118815,0.219026511
13,cm271,Some property is like your childhood blanket that you have kept around for 20 years ,conv,5,5,7,21,69196,21,m,ambi,4,3,english,,0,0,0,12,17,14,38,22,11,23.5891927,0.154708379,0.134667085
13,cm273,Her Family is like the foundation of an anti-zombie fortress ,conv,5,5,9,5,74053,21,m,ambi,4,3,english,,0,0,0,12,17,14,38,22,11,23.5891927,-0.019927701,0.071063436
13,cm277,Her house was organized like a Spartan Commander's Tent. ,conv,4.5,5,13,22,48493,21,m,ambi,4,3,english,,0,0,0,12,17,14,38,22,11,23.5891927,0.033099571,0.306316667
14,cm303,"Friendship are stars in a constellation, Keeps People Together for a Long Time.  ",conv,5,5,17,20,55538,24,f,right,4,1,english,,0,0,0,19,8,5,33,9,5,10.7999528,0.55180313,0.744970447
15,cm310,Some computer programs are like trying to like your elbow ,conv,5,5,2,7,43348,27,f,right,6,3,english,,0,0,0,17,40,7,53,19,8,18.4195702,0.27702134,0.324111908
15,cm322,Her beauty is like casting a wide net ,conv,5,5,14,14,55899,27,f,right,6,3,english,,0,0,0,17,40,7,53,19,8,18.4195702,-0.061375292,0.009844107
15,cm329,Love is like trying to herd cats ,conv,5,5,21,3,29835,27,f,right,6,3,english,,0,0,0,17,40,7,53,19,8,18.4195702,0.064527843,0.118189749
16,cm334,Her attractiveness was like the beguiling tune of a snake charmer ,conv,5,5,4,14,20548,26,m,right,6,4,bilingual,,0,0,0,11,37,10,37,27,12,34.5091566,0.05694946,0.112432714
16,cm335,Some jobs are like a garbage compactor ,conv,5,5,5,1,17077,26,m,right,6,4,bilingual,,0,0,0,11,37,10,37,27,12,34.5091566,-0.135115534,-0.016169609
16,cm339,Some computer programs are like bras ,conv,5,5,9,7,17095,26,m,right,6,4,bilingual,,0,0,0,11,37,10,37,27,12,34.5091566,0.175058207,0.182090654
16,cm341,Certain memories are like Charles Dickens describing a fireplace ,conv,5,5,11,4,39897,26,m,right,6,4,bilingual,,0,0,0,11,37,10,37,27,12,34.5091566,,
16,cm343,Some college lectures are like long treks through the desert ,conv,5,5,13,2,12961,26,m,right,6,4,bilingual,,0,0,0,11,37,10,37,27,12,34.5091566,,
16,cm346,Some people are like inscrutable hieroglyphs ,conv,5,5,16,8,21384,26,m,right,6,4,bilingual,,0,0,0,11,37,10,37,27,12,34.5091566,0.546785802,0.526662613
18,cm380,Some college lectures are like watching a 18-round based ball game. ,conv,5,5,6,2,76891,27,f,right,7,3,non-english,1,3,1,9,11,12,13,26,21,13,17.7804236,,
18,cm386,The Earth is like a library during final periods. ,conv,5,5,12,18,129858,27,f,right,7,3,non-english,1,3,1,9,11,12,13,26,21,13,17.7804236,-0.102352788,0.147256087
18,cm391,Cigarettes are like life vests that suddenly do not work in the sea.  ,conv,5,5,17,15,182686,27,f,right,7,3,non-english,1,3,1,9,11,12,13,26,21,13,17.7804236,0.093311622,0.202965575
18,cm396,Colleges are like a stadium for a superbowl game.  ,conv,5,5,22,16,45497,27,f,right,7,3,non-english,1,3,1,9,11,12,13,26,21,13,17.7804236,0.033108592,0.062089481
19,cm399,"Certain memories are like Indian tapestry, full of figures and colors. ",conv,5,5,3,4,58892,33,f,right,7,2,non-english,2.5,1.5,0.4,14,13,36,10,41,19,10,17.8917509,,
19,cm405,Some relationships are like getting a PhD. ,conv,5,5,9,11,105995,33,f,right,7,2,non-english,2.5,1.5,0.4,14,13,36,10,41,19,10,17.8917509,0.19590926,0.076710576
19,cm409,Some jobs are like the business class middle seat in an international flight. ,conv,5,5,13,1,81778,33,f,right,7,2,non-english,2.5,1.5,0.4,14,13,36,10,41,19,10,17.8917509,-0.090695711,0.05442265
19,cm416,Friendship is like a long-term loan. ,conv,5,5,20,20,26892,33,f,right,7,2,non-english,2.5,1.5,0.4,14,13,36,10,41,19,10,17.8917509,0.007399425,0.160264838
19,cm418,Her smile is like ice-cream in a hot summer. ,conv,5,5,22,10,32171,33,f,right,7,2,non-english,2.5,1.5,0.4,14,13,36,10,41,19,10,17.8917509,0.055777101,-0.02486606
20,cm420,Some relationships are just like working night shifts at Arby's. ,conv,5,5,2,11,70859,45,f,right,6,3,non-english,2.5,1.5,0.4,11,17,24,14,39,22,11,13.2096799,0.231229563,0.143769292
20,cm422,Some college lectures are like watching golf. ,conv,5,5,4,2,42690,45,f,right,6,3,non-english,2.5,1.5,0.4,11,17,24,14,39,22,11,13.2096799,,
20,cm429,Certain memories are like a pilot's check list. ,conv,5,5,11,4,47395,45,f,right,6,3,non-english,2.5,1.5,0.4,11,17,24,14,39,22,11,13.2096799,,
20,cm430,Friendship is like a tree that lives through the years. ,conv,5,5,12,20,152438,45,f,right,6,3,non-english,2.5,1.5,0.4,11,17,24,14,39,22,11,13.2096799,0.253729574,0.306461538
22,cm464,Some relationships are like living in a mansion with too many empty rooms and nothing to do with them. ,conv,5,5,2,11,103911,19,f,left,3,2,english,,0,0,0,10,23,10,33,27,12,23.546557,0.260796397,0.261075251
22,cm475,Her beauty makes her as laid back as a lazy cat who wants her food. ,conv,5,5,13,14,91390,19,f,left,3,2,english,,0,0,0,10,23,10,33,27,12,23.546557,0.375873418,0.535477515
22,cm481,Love is like wanting to be a musician for career. ,conv,5,5,19,3,64529,19,f,left,3,2,english,,0,0,0,10,23,10,33,27,12,23.546557,0.117039833,0.010628555
22,cm482,Some jobs are like boa constrictors. ,conv,5,5,20,1,17771,19,f,left,3,2,english,,0,0,0,10,23,10,33,27,12,23.546557,-0.147171548,-0.021787128
23,cm485,Trying to persude the old men was liking trying to scrape gum off the bottom of my shoe.  ,conv,5,5,1,6,92827,19,f,right,4,2,english,,0,0,0,12,-9,10,35,27,6,18.9884451,0.223800252,0.22349071
23,cm489,Trying to read there minds was like trying to read text off a computer screen without your perscription glasses.  ,conv,5,5,5,8,32146,19,f,right,4,2,english,,0,0,0,12,-9,10,35,27,6,18.9884451,0.271491474,0.327342976
23,cm492,"The woman's allure was like a net, catching all the fish in a lake while someone else stands on the shore with a broken rod.  ",conv,5,5,8,14,312110,19,f,right,4,2,english,,0,0,0,12,-9,10,35,27,6,18.9884451,-0.007358021,0.20266392
23,cm493,Learning how to use the computer program was like trying to learn how to drive a stick. ,conv,5,5,9,7,79064,19,f,right,4,2,english,,0,0,0,12,-9,10,35,27,6,18.9884451,0.489100362,0.593345711
23,cm494,"Once the pair became friends, they were as hard to seperate as bricks layered with cement.  ",conv,5,5,10,20,132349,19,f,right,4,2,english,,0,0,0,12,-9,10,35,27,6,18.9884451,0.265081066,0.195249709
23,cm499,Young people these days are like ants at a picnic.  ,conv,5,5,15,12,23094,19,f,right,4,2,english,,0,0,0,12,-9,10,35,27,6,18.9884451,0.15724611,0.206508482
23,cm500,Purchasing the estates would be like having stock in Google. ,conv,4.5,5,16,21,60665,19,f,right,4,2,english,,0,0,0,12,-9,10,35,27,6,18.9884451,0.091312203,0.116791884
23,cm503,"Smoking is like standing in a open field during a lighting storm. You never know if or when, but your treding on a landmine all the same.  ",conv,5,5,19,15,60743,19,f,right,4,2,english,,0,0,0,12,-9,10,35,27,6,18.9884451,0.021772281,0.168386384
23,cm505,"Education is like a welcome mat, its the first step to enter a whole new world.  ",conv,5,5,21,19,31724,19,f,right,4,2,english,,0,0,0,12,-9,10,35,27,6,18.9884451,0.272876905,0.351049006
23,cm506,"Some relationships are like trying to plant roses in the winter. You can dig through the frozen soil all you want, but the bulbs are never going to blossom.  ",conv,5,5,22,11,57118,19,f,right,4,2,english,,0,0,0,12,-9,10,35,27,6,18.9884451,0.038276959,0.046034472
24,cm507,The effects of getting a divorce is like the dropping of nukes on Japan ,conv,5,5,1,17,93468,23,m,right,6,3,english,,0,0,0,12,20,6,42,21,7,16.0651106,0.042612851,0.131518133
24,cm514,Trying to understand what some people are thinking is like trying to understand America's current government  ,conv,4.5,5,8,8,93988,23,m,right,6,3,english,,0,0,0,12,20,6,42,21,7,16.0651106,0.601516556,0.632138512
24,cm518,Some relationshoips are like working in a research lab and having a project fail  ,conv,5,5,12,11,49543,23,m,right,6,3,english,,0,0,0,12,20,6,42,21,7,16.0651106,0.027645271,-0.175691577
24,cm520,Her family functions like a BSL-4 lab  ,conv,5,5,14,5,28250,23,m,right,6,3,english,,0,0,0,12,20,6,42,21,7,16.0651106,0.019929651,0.221305655
25,cm536,Colleges are like vending machines. There are countless and various options to choose from. ,conv,5,5,8,16,50596,19,f,right,1,3,bilingual,1,3,1,3,20,10,5,15,18,6,17.1918087,0.012826997,0.258146839
25,cm544,Some Old Men are like Scrooges on Christmas.  ,conv,5,5,16,6,44924,19,f,right,1,3,bilingual,1,3,1,3,20,10,5,15,18,6,17.1918087,0.038110106,-0.022046387
26,cm555,some relationships are like toilet paper ,conv,5,5,5,11,35058,19,f,right,1,3,non-english,1.5,2.5,0.666666667,4,14,30,8,31,16,8,10.9033841,0.214903476,0.000876381
27,cm582,"Cigarettes may cause a decline to the point of death, just like eating mcdonalds. ",conv,3.5,5,10,15,158171,31,m,left,5,2,english,,0,0,0,21,36,6,52,20,10,15.4741278,0.320285826,0.318800557
28,cm595,Friendships are like tangled headphones. ,conv,5,5,1,20,79756,21,f,right,3,2,bilingual,2.75,1.25,0.363636364,6,21,4,7,20,13,2,9.6914146,0.048283187,0.110208829
28,cm596,The earth is like birds gathering every meal to eat. ,conv,5,5,2,18,70451,21,f,right,3,2,bilingual,2.75,1.25,0.363636364,6,21,4,7,20,13,2,9.6914146,0.090904726,0.24965485
28,cm606,Some college lectures are like watching a lifetime movie. ,conv,5,5,12,2,85705,21,f,right,3,2,bilingual,2.75,1.25,0.363636364,6,21,4,7,20,13,2,9.6914146,,
28,cm613,Her house is like brand new shoes. ,conv,5,5,19,22,50420,21,f,right,3,2,bilingual,2.75,1.25,0.363636364,6,21,4,7,20,13,2,9.6914146,0.127253044,0.22209333
29,cm620,Some computer programs are like trying to repair the I85 bridge ,conv,5,5,4,7,67834,22,m,right,4,3,bilingual,2.25,1.75,0.444444444,5,12,-3,14,40,19,9,29.3434821,0.228135103,0.30664697
29,cm628,Some college lectures are like sitting in Catholic mass on Sundays ,conv,3,5,12,2,58271,22,m,right,4,3,bilingual,2.25,1.75,0.444444444,5,12,-3,14,40,19,9,29.3434821,,
29,cm631,Some Old Men are like puppies that choose to sit during a walk rather than cooperate and explore the neighborhood for a place to poop ,conv,5,5,15,6,32381,22,m,right,4,3,bilingual,2.25,1.75,0.444444444,5,12,-3,14,40,19,9,29.3434821,0.064938413,0.006172433
29,cm635,Love is like visiting Russie and never have had any exposure to the Cyrilic (? ,conv,5,5,19,3,43681,22,m,right,4,3,bilingual,2.25,1.75,0.444444444,5,12,-3,14,40,19,9,29.3434821,0.026632785,0.058210009
30,cm640,Colleges are like a collage of all the colors of the rainbow plastered together ,conv,5,5,2,16,69876,20,m,left,2,3,english,,0,0,0,9,35,14,41,23,11,23.5710328,-0.026407086,0.03678424
30,cm641,Using some computer prgrams is like trying to get a horse to fit through a keyhole ,conv,5,5,3,7,80053,20,m,left,2,3,english,,0,0,0,9,35,14,41,23,11,23.5710328,0.490792016,0.548510865
30,cm642,Going through some of these college lectures is like looking at the intricacies of the letter T ,conv,5,5,4,2,207373,20,m,left,2,3,english,,0,0,0,9,35,14,41,23,11,23.5710328,,
30,cm643,Her house is like a house looks like in an OxiClean commercial ,conv,5,5,5,22,60580,20,m,left,2,3,english,,0,0,0,9,35,14,41,23,11,23.5710328,0.129760315,0.310184409
30,cm644,Her family is like a steady horse that gets you to your destination ,conv,5,5,6,5,42898,20,m,left,2,3,english,,0,0,0,9,35,14,41,23,11,23.5710328,-0.054153605,0.068540049
30,cm649,Some jobs make people feel like they're the main character from 127 hours ,conv,5,5,11,1,58446,20,m,left,2,3,english,,0,0,0,9,35,14,41,23,11,23.5710328,-0.108132546,0.135754697
30,cm651,Some relationships are like being a tour guide for a forgotten tourist that gives no pay ,conv,5,5,13,11,83497,20,m,left,2,3,english,,0,0,0,9,35,14,41,23,11,23.5710328,0.161086074,0.146321203
31,cm661,Her smile drew them in like the scent of fresh baked cookies. ,conv,5,5,1,10,157590,43,f,left,7,3,english,,0,0,0,9,60,12,58,27,10,19.5383723,0.056639156,0.090051981
31,cm668,The university is like a United Colors of Benetton ad. ,conv,5,5,8,16,34922,43,f,left,7,3,english,,0,0,0,9,60,12,58,27,10,19.5383723,0.029586848,-0.040324638
31,cm673,Some versions of Photoshop are like learning a dead language. ,conv,5,5,13,7,25304,43,f,left,7,3,english,,0,0,0,9,60,12,58,27,10,19.5383723,0.155836754,0.15387855
33,cm712,Vivid memories are like cats. Some stick with you while others run away.  ,conv,5,5,8,4,187180,27,f,right,6,2,english,,0,0,0,13,25,6,37,21,7,14.4058574,,
33,cm719,Her family is like a tugboat pulling a shipwreack home.  ,conv,5,5,15,5,41227,27,f,right,6,2,english,,0,0,0,13,25,6,37,21,7,14.4058574,-0.008537415,0.005414793
34,cm728,Some people mind's is like a cloudy fish tank.  ,conv,5,5,2,8,42732,21,f,right,3,3,non-english,1.25,2.75,0.8,5,12,-1,11,29,19,9,14.3979614,0.229122491,0.349810045
34,cm731,Her family is like two kids on a seesaw with straps.  ,conv,5,5,5,5,82470,21,f,right,3,3,non-english,1.25,2.75,0.8,5,12,-1,11,29,19,9,14.3979614,0.048584177,0.127820844
34,cm738,Some relationships is like a dog that has no love and gets no food to eat at all.  ,conv,5,5,12,11,70340,21,f,right,3,3,non-english,1.25,2.75,0.8,5,12,-1,11,29,19,9,14.3979614,0.171610315,0.202686947
34,cm739, Certain memories are like an explosion of colors that you can count and remember clearly what it was like.  ,conv,4.5,5,13,4,39732,21,f,right,3,3,non-english,1.25,2.75,0.8,5,12,-1,11,29,19,9,14.3979614,,
34,cm745,Her house is like how the books are placed in the library. ,conv,5,5,19,22,51760,21,f,right,3,3,non-english,1.25,2.75,0.8,5,12,-1,11,29,19,9,14.3979614,0.081760359,0.293820724
34,cm746,Some computer programs are like how great grandparents are leaning how to text and use a phone.  ,conv,5,5,20,7,71303,21,f,right,3,3,non-english,1.25,2.75,0.8,5,12,-1,11,29,19,9,14.3979614,0.369208721,0.326521839
35,cm753,cigarettes is like spending your bank money without paying attention to how much you have left ,conv,5,5,5,15,74266,20,f,right,3,3,non-english,2,2,0.5,10,12,-7,9,30,12,3,16.0887986,0.002058655,0.191806966
35,cm758,some relationships is like smoking ciggarates hoping to ease your stress ,conv,5,5,10,11,111608,20,f,right,3,3,non-english,2,2,0.5,10,12,-7,9,30,12,3,16.0887986,0.268740528,0.063448799
35,cm761,education is like trying to win the lottery ,conv,5,5,13,19,60900,20,f,right,3,3,non-english,2,2,0.5,10,12,-7,9,30,12,3,16.0887986,0.408283978,0.396898701
36,cm774,Her family is as secure as the best car insurance  ,conv,5,5,4,5,38749,20,f,right,3,2,bilingual,2.25,1.75,0.444444444,3,6,18,10,23,23,10,14.8934089,0.100130234,0.234407865
36,cm777,Her beauty sells easily as anything in Las Vegas  ,conv,5,5,7,14,54071,20,f,right,3,2,bilingual,2.25,1.75,0.444444444,3,6,18,10,23,23,10,14.8934089,0.061163686,0.281208878
36,cm781,Education like finding your lost car keys ,conv,5,5,11,19,42592,20,f,right,3,2,bilingual,2.25,1.75,0.444444444,3,6,18,10,23,23,10,14.8934089,0.154499628,0.32208135
36,cm782,Some college lectures are like having to call customer service ,conv,5,5,12,2,18399,20,f,right,3,2,bilingual,2.25,1.75,0.444444444,3,6,18,10,23,23,10,14.8934089,,
36,cm786,His temper is as crazy as the acrophobia ride at Six Flags   ,conv,5,5,16,13,35880,20,f,right,3,2,bilingual,2.25,1.75,0.444444444,3,6,18,10,23,23,10,14.8934089,0.054932611,0.168645936
36,cm787,Certain memories are very colorful as vera bradley bags  ,conv,5,5,17,4,54553,20,f,right,3,2,bilingual,2.25,1.75,0.444444444,3,6,18,10,23,23,10,14.8934089,,
36,cm792,Her house is as clean an ocd addiction  ,conv,5,5,22,22,55389,20,f,right,3,2,bilingual,2.25,1.75,0.444444444,3,6,18,10,23,23,10,14.8934089,0.198540338,0.320731459
37,cm797,friendship is like being stuck in an elevator  ,conv,5,5,5,20,44159,19,f,right,3,3,english,,0,0,0,10,6,14,43,19,10,21.3231647,0.162259269,0.221604662
37,cm799,some old men are like trying to straighten my hair  ,conv,5,5,7,6,81680,19,f,right,3,3,english,,0,0,0,10,6,14,43,19,10,21.3231647,0.22319114,0.216770429
37,cm809,some teenagers are like flies trapped in the blinds  ,conv,5,5,17,12,40439,19,f,right,3,3,english,,0,0,0,10,6,14,43,19,10,21.3231647,0.106050706,0.133959743
37,cm812,some people are as hard to read as the koran  ,conv,5,5,20,8,35863,19,f,right,3,3,english,,0,0,0,10,6,14,43,19,10,21.3231647,0.649910358,0.664362702
37,cm813,certain memories are like a chandelier  ,conv,5,5,21,4,41781,19,f,right,3,3,english,,0,0,0,10,6,14,43,19,10,21.3231647,,
38,cm815,Her house is like an organized filing cabinet. ,conv,5,5,1,22,40295,19,m,right,3,4,english,,0,0,0,14,4,11,56,24,11,13.2080998,0.142691666,0.278452058
38,cm835,Some people are like hidden metaphors. ,conv,5,5,21,8,88823,19,m,right,3,4,english,,0,0,0,14,4,11,56,24,11,13.2080998,0.520910134,0.475177767
38,cm836,His temper is like the beginning of a rollercoaster. ,conv,5,5,22,13,25092,19,m,right,3,4,english,,0,0,0,14,4,11,56,24,11,13.2080998,0.061566607,0.061460442
39,cm840,some people are like banana with yellow outside and white inside,conv,5,5,4,8,82708,36,f,right,7,3,non-english,1,3,1,10,14,22,6,29,13,12,18.4298341,0.17309747,0.148494725
41,cm881,When she smiles is as if every beauty godess in every mithology had agreed to have a photo shot at the same time  ,conv,5,5,1,10,491538,38,f,right,6,3,non-english,2.25,1.75,0.444444444,5,19,32,12,49,25,6,13.2357358,-0.02864475,-0.086998932
41,cm883,Some college lectures are like filling clock sands grain by grain ,conv,5,5,3,2,455323,38,f,right,6,3,non-english,2.25,1.75,0.444444444,5,19,32,12,49,25,6,13.2357358,,
41,cm884,Her family is like a bunch of retired superheroes ,conv,4.5,5,4,5,44994,38,f,right,6,3,non-english,2.25,1.75,0.444444444,5,19,32,12,49,25,6,13.2357358,-0.033539332,-0.155677769
41,cm885,Her beauty works as a genie lamp  ,conv,5,5,5,14,58831,38,f,right,6,3,non-english,2.25,1.75,0.444444444,5,19,32,12,49,25,6,13.2357358,0.200220704,0.113461064
41,cm886,"The Earth is like the Mars Brother's cabinet occupied with a television crew almost ready to inform about President Trump's resignement, with just thirty seconds to report nationwide  ",conv,5,5,6,18,570984,38,f,right,6,3,non-english,2.25,1.75,0.444444444,5,19,32,12,49,25,6,13.2357358,0.027171817,0.214302504
41,cm887,His temper is like weakening a dragon after a three million years nap ,conv,5,5,7,13,83321,38,f,right,6,3,non-english,2.25,1.75,0.444444444,5,19,32,12,49,25,6,13.2357358,0.016263007,0.214516557
41,cm893,Some relationships make you feel like the last soldier a battle ,conv,5,5,13,11,241488,38,f,right,6,3,non-english,2.25,1.75,0.444444444,5,19,32,12,49,25,6,13.2357358,0.140635654,0.190644557
41,cm894,Some computers are like chatting with a Sphinx ,conv,5,5,14,7,44244,38,f,right,6,3,non-english,2.25,1.75,0.444444444,5,19,32,12,49,25,6,13.2357358,0.181139482,0.067289154
41,cm897,Friendship is like marriage but without sex and divorce ,conv,4.5,5,17,20,79342,38,f,right,6,3,non-english,2.25,1.75,0.444444444,5,19,32,12,49,25,6,13.2357358,0.020255646,0.123119392
41,cm901,some teenages seem to have an endless supply of Popeye's spinachs ,conv,5,5,21,12,40800,38,f,right,6,3,non-english,2.25,1.75,0.444444444,5,19,32,12,49,25,6,13.2357358,0.06958814,0.192109022
42,cm907,"Some people are like an unkown/ misterious code, if you don't have the key code is almost impossible to decifer  ",conv,5,5,5,8,260248,38,f,right,6,2,non-english,2.25,1.75,0.444444444,8,16,5,14,36,16,7,20.1577789,0.291027925,0.318133145
42,cm913,Her smile is like the mermaid's chants/songs (!?))))) ,conv,5,5,11,10,92236,38,f,right,6,2,non-english,2.25,1.75,0.444444444,8,16,5,14,36,16,7,20.1577789,-0.073360294,-0.064638741
42,cm914,Colleges are like some dinner mesmerizing long menus ,conv,5,5,12,16,163512,38,f,right,6,2,non-english,2.25,1.75,0.444444444,8,16,5,14,36,16,7,20.1577789,0.042904085,0.18741318
42,cm919,some computer programs are like eating soup with a fork  ,conv,5,5,17,7,44945,38,f,right,6,2,non-english,2.25,1.75,0.444444444,8,16,5,14,36,16,7,20.1577789,0.168487978,0.203641281
42,cm922,Her beauty is like a trampolin that let's her gets higher and higher without much effort ,conv,5,5,20,14,62837,38,f,right,6,2,non-english,2.25,1.75,0.444444444,8,16,5,14,36,16,7,20.1577789,0.590563366,0.600853452
43,cm927,Some people are like a book you dropped in the bath: really difficult to read. ,conv,5,5,3,8,44883,26,f,right,6,3,english,,0,0,0,11,21,10,56,26,11,26.4825233,0.493858079,0.550817461
44,cm951,"Education is like a gameshow door where, no matter what, there's a prize on the other side. ",conv,5,5,5,19,56044,24,f,right,6,2,english,,0,0,0,8,26,6,53,20,11,20.7487617,0.076398914,0.094451358
46,cm1002,Her smile is like a blackhole you cannot but fall into.,conv,5,5,12,10,44981,35,f,right,7,3,non-english,1,3,1,9,24,40,12,43,23,13,17.8372712,-0.025695548,-0.031012231
47,cm1023,Love is like a ball that cannot be easily caught in my hand.,conv,5,5,11,3,56210,39,f,right,6,4,non-english,1,3,1,12,23,45,12,50,23,11,17.2076007,0.051484,0.030281616
47,cm1025,The earth is like a factory with a big conveyer belt that moves every night and day.,conv,5,5,13,18,148778,39,f,right,6,4,non-english,1,3,1,12,23,45,12,50,23,11,17.2076007,0.203811753,0.30482618
47,cm1026,Some teenagers are like doggies that need to have a pee.,conv,5,5,14,12,49458,39,f,right,6,4,non-english,1,3,1,12,23,45,12,50,23,11,17.2076007,0.168904518,0.149091261
49,cm1060,Her beauty was like the authority of queen in a kingdom.,conv,5,5,4,14,109825,33,f,right,7,3,non-english,1,3,1,12,12,5,13,46,16,11,18.4219381,-0.181882843,-0.102527485
49,cm1074,Some jobs are like parenting. ,conv,5,5,18,1,37660,33,f,right,7,3,non-english,1,3,1,12,12,5,13,46,16,11,18.4219381,-0.149509542,-0.018755516
49,cm1078,Education functions like a GPS. ,conv,5,5,22,19,57971,33,f,right,7,3,non-english,1,3,1,12,12,5,13,46,16,11,18.4219381,0.125880253,0.203755817
51,cm1105,Her house is like pure clouds,conv,5,5,5,22,54710,19,f,right,2,3,bilingual,1.5,2.5,0.666666667,12,18,0,3,45,26,3,13.179676,0.102362677,0.311683317
52,cm1330,some property is like rainfall in Sahara,conv,5,5,10,21,61156,32,f,right,7,3,non-english,1.5,2.5,0.666666667,11,24,17,7,28,19,7,14.4216494,0.178214247,0.077475274
52,cm1334,some jobs are like working at the bottom of a well,conv,4.5,5,14,1,37569,32,f,right,7,3,non-english,1.5,2.5,0.666666667,11,24,17,7,28,19,7,14.4216494,-0.152347993,-0.017413092
52,cm1340,certain memories are like what my mom told me what to do and what not to do on my first day to school,conv,5,5,20,4,100451,32,f,right,7,3,non-english,1.5,2.5,0.666666667,11,24,17,7,28,19,7,14.4216494,,
53,cm1312,Some people are two-dimensioned people in three-dimensioned world.,conv,5,5,14,8,68718,17,f,right,1,3,bilingual,1.5,2.5,0.666666667,9,25,44,6,32,12,8,17.8593791,0.487522986,0.42494067
53,cm1317,Some computer programs are the 4-credit class in college.,conv,5,5,19,7,45715,17,f,right,1,3,bilingual,1.5,2.5,0.666666667,9,25,44,6,32,12,8,17.8593791,0.090375457,0.149245575
54,cm1126,some relationships offer as much as being on social medias all day long,conv,5,5,4,11,126847,21,f,right,4,3,non-english,2.5,1.5,0.4,10,13,4,13,44,11,9,13.179676,0.216280379,0.065523584
54,cm1134,some property are like historic mansions,conv,4.5,5,12,21,55402,21,f,right,4,3,non-english,2.5,1.5,0.4,10,13,4,13,44,11,9,13.179676,0.17977011,0.091920631
54,cm1140,some computer programs make you feel like an analphabet,conv,5,5,18,7,56299,21,f,right,4,3,non-english,2.5,1.5,0.4,10,13,4,13,44,11,9,13.179676,0.334212964,0.348004173
55,cm1164,Her smile is as contagious as Snow White's singing voice.,conv,5,5,20,10,27021,17,f,right,1,4,bilingual,2.75,1.25,0.363636364,1,6,20,9,58,14,4,26.9945506,-0.057742157,-0.064646952
56,cm1178,Some properties are more expensive than a small town combined.,conv,4.5,5,12,21,47731,19,m,left,1,3,non-english,2.25,1.75,0.444444444,5,15,10,12,34,15,11,10.3124013,0.099069388,0.184353022
56,cm1181,Some people are like a closely guarded government building,conv,5,5,15,8,68803,19,m,left,1,3,non-english,2.25,1.75,0.444444444,5,15,10,12,34,15,11,10.3124013,0.079891191,0.140806788
56,cm1184,Cigarettes are like high interest rate debts,conv,5,5,18,15,59158,19,m,left,1,3,non-english,2.25,1.75,0.444444444,5,15,10,12,34,15,11,10.3124013,0.026627083,0.138513743
57,cm1193,"like a mini UN, has different race, different religions, different nationalities perople",conv,5,5,5,16,55267,28,f,right,1,3,non-english,1.25,2.75,0.8,11,15,24,5,28,10,5,12.0971937,0.580275525,0.720224441
58,cm1213,Some relationships are like studying for a doctoral degree in your 30s and graduating after six or seven years realizing you cannot do much with your degree.,conv,5,5,3,11,89846,34,f,left,7,3,bilingual,1.25,2.75,0.8,3,24,55,6,62,19,8,23.0447936,0.079160558,-0.068270441
58,cm1216,Certain memories are like the billions and billions of pixels found on a 42 inch plasma TV.,conv,5,5,6,4,87485,34,f,left,7,3,bilingual,1.25,2.75,0.8,3,24,55,6,62,19,8,23.0447936,,
58,cm1219,Her family is like putting your savings in a fixed deposit account.,conv,5,5,9,5,60196,34,f,left,7,3,bilingual,1.25,2.75,0.8,3,24,55,6,62,19,8,23.0447936,0.018033583,0.160272358
58,cm1222,Her smile is like walking past the Apple Store and seeing the latest iPhoneX.,conv,5,5,12,10,44707,34,f,left,7,3,bilingual,1.25,2.75,0.8,3,24,55,6,62,19,8,23.0447936,-0.007153834,0.09229785
58,cm1230,"Love is like putting all your variables in an OLS regression, not knowing whether it will spit out the data that you are hoping to get.",conv,5,5,20,3,91152,34,f,left,7,3,bilingual,1.25,2.75,0.8,3,24,55,6,62,19,8,23.0447936,0.180021497,0.194512593
59,cm1234,some computer programs are deeply harder than knowing a girl's mind,conv,5,5,2,7,83669,22,f,right,6,4,non-english,2.5,1.5,0.4,12,14,20,12,61,22,7,22.405647,0.203212297,0.231239743
59,cm1237,certain memories are a lego's magazine : you find every part of the story you need,conv,5,5,5,4,102383,22,f,right,6,4,non-english,2.5,1.5,0.4,12,14,20,12,61,22,7,22.405647,,
59,cm1244,some jobs are an exclusive relationship between a computer and you,conv,5,5,12,1,152663,22,f,right,6,4,non-english,2.5,1.5,0.4,12,14,20,12,61,22,7,22.405647,-0.07999672,0.018860103
60,cm1257,Certain memories are like the ceiling of the Sistine Chapel.,conv,5,5,3,4,100214,18,f,right,2,2,english,,0,0,0,7,64,6,32,23,7,18.9134376,,
60,cm1267,Some old men are like peeling wax off of wood.,conv,5,5,13,6,49451,18,f,right,2,2,english,,0,0,0,7,64,6,32,23,7,18.9134376,0.103398365,0.139301345
61,cm1282,smoking cigarettes is like crossing the street with your eyes closed,conv,5,5,6,15,55597,21,m,right,3,3,non-english,2.5,1.5,0.4,6,15,3,10,50,16,12,16.6576735,0.065623319,0.10358585
1,cm18,Her smile is like a flame to a moth. ,conv,5,4.75,18,10,13455,19,f,right,4,3,english,,0,0,0,14,10,7,49,20,9,15.5183436,0.039743973,0.006394788
2,cm28,Some relationships remind of sewers. ,conv,5,4.75,6,11,89214,22,f,right,4,3,english,,0,0,0,12,-5,8,46,17,6,23.0447936,0.283154564,0.047867103
3,cm50,Some teenagers are like hyperactive bees on coccaine ,conv,5,4.75,6,12,55899,30,m,left,7,3,english,,0,0,0,16,31,14,52,25,13,17.8412192,-0.037161077,0.043151616
5,cm93,Universities are as diverse as Orange is the New Black.  ,conv,5,4.75,5,16,102454,21,m,right,3,4,english,,0,0,0,7,-11,4,55,27,5,12.6494888,0.058493586,0.096619911
5,cm101,Boyfriends and girlfriends can suck worst than their oral sex. ,conv,4.5,4.75,13,11,36127,21,m,right,3,4,english,,0,0,0,7,-11,4,55,27,5,12.6494888,0.20313978,0.191938728
5,cm107,Certain persons can be unpredicatable in thought as Bam Margera is to what he will do next. IE its whatever the fuck he wants. ,conv,2,4.75,19,8,86668,21,m,right,3,4,english,,0,0,0,7,-11,4,55,27,5,12.6494888,0.752588624,0.707302385
8,cm165,are more complex than a rubics cube for color-blind people ,conv,4.5,4.75,11,7,41265,24,f,right,4,2,english,,0,0,0,7,3,8,30,19,8,17.2241805,0.206605143,0.233478051
10,cm206,Some old men are one way streets ,conv,5,4.75,8,6,54721,20,m,ambi,2,3,non-english,1.5,2.5,0.666666667,5,20,8,9,33,18,7,12.0285021,0.082342087,0.033285292
11,cm230,Some property is equivalent to the net worth of Will Smith. ,conv,4.5,4.75,10,21,62444,21,f,right,3,3,bilingual,,0,0,0,17,18,9,62,19,12,20.6571744,0.174950252,0.222694121
13,cm285,Some jobs are like being stuck in a box which you barely fit in ,conv,5,4.75,21,1,17850,21,m,ambi,4,3,english,,0,0,0,12,17,14,38,22,11,23.5891927,-0.119633172,0.073012629
15,cm317,Some old men are as difficult as trying to push a boulder up a hill ,conv,5,4.75,9,6,47416,27,f,right,6,3,english,,0,0,0,17,40,7,53,19,8,18.4195702,0.135221054,0.152598459
19,cm398,Some old men are like weeds in yard.  ,conv,5,4.75,2,6,202193,33,f,right,7,2,non-english,2.5,1.5,0.4,14,13,36,10,41,19,10,17.8917509,0.069103885,0.085563932
19,cm414,Colleges are like a trail mix. ,conv,5,4.75,18,16,95741,33,f,right,7,2,non-english,2.5,1.5,0.4,14,13,36,10,41,19,10,17.8917509,-0.003307073,0.071766461
23,cm497,"Going to Uni can connect you so many kinds of people, its like traveling the world by staying in one spot.  ",conv,5,4.75,13,16,100620,19,f,right,4,2,english,,0,0,0,12,-9,10,35,27,6,18.9884451,0.63119711,0.64388417
24,cm521,Some jobs feel like trying expand a glass jar  ,conv,5,4.75,15,1,63288,23,m,right,6,3,english,,0,0,0,12,20,6,42,21,7,16.0651106,-0.145281683,0.031690267
28,cm612,Eudcation is like a bird that lost hope for finding a meal but got home with a full stomach. ,conv,5,4.75,18,19,116547,21,f,right,3,2,bilingual,2.75,1.25,0.363636364,6,21,4,7,20,13,2,9.6914146,0.183004799,0.199127359
29,cm629,Her family is like a cushion ball ,conv,5,4.75,13,5,28405,22,m,right,4,3,bilingual,2.25,1.75,0.444444444,5,12,-3,14,40,19,9,29.3434821,0.035639583,0.153596233
36,cm775,Some computer programs are like changing the car's oil  ,conv,5,4.75,5,7,58630,20,f,right,3,2,bilingual,2.25,1.75,0.444444444,3,6,18,10,23,23,10,14.8934089,0.201981365,0.302721936
38,cm826,Some teenagers are like Roombas. ,conv,5,4.75,12,12,35711,19,m,right,3,4,english,,0,0,0,14,4,11,56,24,11,13.2080998,0.020657665,0.022068769
40,cm859,Divorce is like Trump,conv,5,4.75,1,17,99100,24,m,right,6,3,bilingual,1,3,1,17,8,15,8,40,18,12,14.9581525,0.18244949,0.111807438
43,cm936,Some teenagers are busy like a crowded city at night. ,conv,5,4.75,12,12,70182,26,f,right,6,3,english,,0,0,0,11,21,10,56,26,11,26.4825233,0.118994018,0.144638701
44,cm955,Friendship is like handcuffs that you want to be in. ,conv,5,4.75,9,20,40524,24,f,right,6,2,english,,0,0,0,8,26,6,53,20,11,20.7487617,0.554313406,0.321553654
44,cm956,Cigarettes are like a Trump presidency. ,conv,5,4.75,10,15,39934,24,f,right,6,2,english,,0,0,0,8,26,6,53,20,11,20.7487617,0.026598073,0.077281825
44,cm958,Some computer programs are like IKEA instruction manuals. ,conv,5,4.75,12,7,18415,24,f,right,6,2,english,,0,0,0,8,26,6,53,20,11,20.7487617,0.225197898,0.23427992
47,cm1024,Some college lectures are like ean endless preach on sunny Sunday afternoon.,conv,2.5,4.75,12,2,109290,39,f,right,6,4,non-english,1,3,1,12,23,45,12,50,23,11,17.2076007,,
48,cm1052,Colleges are like a collection of alphabets.,conv,5,4.75,18,16,22620,28,f,right,7,3,non-english,1,3,1,12,14,5,7,33,12,12,10.3045053,-0.032701394,0.006414141
48,cm1053,Love is a question without solutions.,conv,5,4.75,19,3,34104,28,f,right,7,3,non-english,1,3,1,12,14,5,7,33,12,12,10.3045053,0.205317831,0.169710238
49,cm1071,Some computer programs are like students' motivation.,conv,5,4.75,15,7,116042,33,f,right,7,3,non-english,1,3,1,12,12,5,13,46,16,11,18.4219381,0.110019739,0.215969506
50,cm1079,Some people's brains are like blackboxes.,conv,5,4.75,1,8,32849,29,f,right,6,2,non-english,1.5,2.5,0.666666667,12,18,29,14,53,14,7,18.3753544,0.289529483,0.457567579
51,cm1102,"Love is like impossibly guessable letter,x",conv,5,4.75,2,3,67983,19,f,right,2,3,bilingual,1.5,2.5,0.666666667,12,18,0,3,45,26,3,13.179676,-0.050257805,-0.060469735
52,cm1336,some computer programs are like physics to students majoring in fine art,conv,5,4.75,16,7,61010,32,f,right,7,3,non-english,1.5,2.5,0.666666667,11,24,17,7,28,19,7,14.4216494,0.061035773,0.167885908
54,cm1133,colleges are salad bowl,conv,5,4.75,11,16,36057,21,f,right,4,3,non-english,2.5,1.5,0.4,10,13,4,13,44,11,9,13.179676,-0.005778015,0.018656689
55,cm1153,"Love is like Russian Roulette, you never know where the bullet is.",conv,5,4.75,9,3,52914,17,f,right,1,4,bilingual,2.75,1.25,0.363636364,1,6,20,9,58,14,4,26.9945506,0.049510639,-0.005309794
56,cm1171,Colleges are more diverse than an animal watering hole,conv,5,4.75,5,16,306118,19,m,left,1,3,non-english,2.25,1.75,0.444444444,5,15,10,12,34,15,11,10.3124013,0.023206159,0.346335698
58,cm1220,Divorce is like the Spanish Flu or the Bubonic plague.,conv,5,4.75,10,17,34987,34,f,left,7,3,bilingual,1.25,2.75,0.8,3,24,55,6,62,19,8,23.0447936,0.122872295,0.133700378
58,cm1226,Her beauty is like grabbing your phone from the back of your pocket.,conv,5,4.75,16,14,80135,34,f,left,7,3,bilingual,1.25,2.75,0.8,3,24,55,6,62,19,8,23.0447936,0.233611094,0.327963084
58,cm1229,Some college lectures are like listening to the same old song for the hundredth time.,conv,4.5,4.75,19,2,37141,34,f,left,7,3,bilingual,1.25,2.75,0.8,3,24,55,6,62,19,8,23.0447936,,
59,cm1254,some relationships are a sad story of ice cream and tears,conv,5,4.75,22,11,56117,22,f,right,6,4,non-english,2.5,1.5,0.4,12,14,20,12,61,22,7,22.405647,0.265341257,0.340519916
60,cm1261,Some relationships are like grave digging.,conv,5,4.75,7,11,47987,18,f,right,2,2,english,,0,0,0,7,64,6,32,23,7,18.9134376,0.266508341,0.188593965
61,cm1286,listening to some college lectures giving their speech  is like listening non stop to the names of all GSU students,conv,3,4.75,10,2,225148,21,m,right,3,3,non-english,2.5,1.5,0.4,6,15,3,10,50,16,12,16.6576735,,
2,cm32,Some computer programs remind me of boys. ,conv,5,4.5,10,7,70190,22,f,right,4,3,english,,0,0,0,12,-5,8,46,17,6,23.0447936,0.146080175,0.162256248
2,cm36,Some Old Men are similar to Republicans on their views of ObamaCare. ,conv,3,4.5,14,6,95263,22,f,right,4,3,english,,0,0,0,12,-5,8,46,17,6,23.0447936,0.044467613,0.11038278
2,cm41,Education is traveling ,conv,5,4.5,19,19,116866,22,f,right,4,3,english,,0,0,0,12,-5,8,46,17,6,23.0447936,0.128883716,0.156405341
3,cm63,Friendship is like a Chinese finger trap ,conv,5,4.5,19,20,45928,30,m,left,7,3,english,,0,0,0,16,31,14,52,25,13,17.8412192,-0.022754987,0.132588825
5,cm91,Cigaretts can kill you in the future without warning like a facebook live killer.  ,conv,5,4.5,3,15,60548,21,m,right,3,4,english,,0,0,0,7,-11,4,55,27,5,12.6494888,0.850604412,0.809715473
5,cm109,Dreams can be as vivid as news anchors' face makeup in HiDef television.  ,conv,5,4.5,21,4,42972,21,m,right,3,4,english,,0,0,0,7,-11,4,55,27,5,12.6494888,,
5,cm110,Those people provide her with as much protection as the secret service do for the president.  ,conv,4.5,4.5,22,5,52616,21,m,right,3,4,english,,0,0,0,7,-11,4,55,27,5,12.6494888,0.066556389,0.387778403
6,cm112,"One could think of the Earth as a cosmic beehive, with each of the peons hobbling to and fro to fulfill their duties. ",conv,4.5,4.5,2,18,47387,27,m,right,7,3,english,,0,0,0,13,28,9,52,26,12,21.2986889,0.179764451,0.282146349
6,cm115,Alas! Her beauty was a veritable license to print money. ,conv,5,4.5,5,14,53353,27,m,right,7,3,english,,0,0,0,13,28,9,52,26,12,21.2986889,0.050462629,0.124701107
6,cm124,"For Teresa, her family was a golden rock to which she could cling amid a Sea of Chaos. ",conv,5,4.5,14,5,71679,27,m,right,7,3,english,,0,0,0,13,28,9,52,26,12,21.2986889,0.006021543,-0.085473908
6,cm130,Kid! Come back! Fricking listen to me. Your education is the best kind of martial arts training you could imagine and it will let you punch out all your competition at the job interviews! ,conv,4.5,4.5,20,19,127513,27,m,right,7,3,english,,0,0,0,13,28,9,52,26,12,21.2986889,0.171153352,0.328253331
7,cm135,Recalling certain memories can be like looking through a microscope. ,conv,5,4.5,3,4,91278,21,f,left,4,3,english,,0,0,0,15,27,12,60,26,12,23.0550575,,
7,cm144,Some computer programs are like trying to figure out a piece of medical equipment without knowing what it's for. ,conv,4.5,4.5,12,7,193701,21,f,left,4,3,english,,0,0,0,15,27,12,60,26,12,23.0550575,0.347478221,0.352329193
7,cm151,Some jobs make you feel like a sardine in a can. ,conv,5,4.5,19,1,24421,21,f,left,4,3,english,,0,0,0,15,27,12,60,26,12,23.0550575,-0.159106033,0.009697453
7,cm154,Trying to understand some people is like trying to read a book in an alien language. ,conv,5,4.5,22,8,90157,21,f,left,4,3,english,,0,0,0,15,27,12,60,26,12,23.0550575,0.465714891,0.496447729
8,cm159,"like a thick stew, mixed of people with different flavors of life ",conv,5,4.5,5,16,57687,24,f,right,4,2,english,,0,0,0,7,3,8,30,19,8,17.2241805,0.585944751,0.593437152
9,cm184,Some relationships are like being a poor single ,conv,4.5,4.5,8,11,57901,21,m,right,2,2,bilingual,1,3,1,6,11,0,8,37,24,9,17.303136,0.24143727,0.180917264
9,cm189,Love is like catching a bouncing football ,conv,5,4.5,13,3,16938,21,m,right,2,2,bilingual,1,3,1,6,11,0,8,37,24,9,17.303136,-0.020086432,-0.00928346
11,cm241,Certain memories are vivid like a grass after a rainy day. ,conv,5,4.5,21,4,62519,21,f,right,3,3,bilingual,,0,0,0,17,18,9,62,19,12,20.6571744,,
12,cm250,Her smile is like a lure. ,conv,5,4.5,8,10,9160,20,f,right,2,3,bilingual,1.75,2.25,0.571428571,2,15,11,13,38,20,12,16.0224749,0.150613797,0.235692151
12,cm264,Some old men are like a jar that won't open. ,conv,5,4.5,22,6,52229,20,f,right,2,3,bilingual,1.75,2.25,0.571428571,2,15,11,13,38,20,12,16.0224749,0.106104771,0.050440049
13,cm265,Some people are as expressive as a rock. ,conv,5,4.5,1,8,59961,21,m,ambi,4,3,english,,0,0,0,12,17,14,38,22,11,23.5891927,0.299424891,0.417322078
13,cm266,Colleges are like diverse marketplaces selling knowledge from various cultures. ,conv,5,4.5,2,16,65637,21,m,ambi,4,3,english,,0,0,0,12,17,14,38,22,11,23.5891927,0.106022623,0.381975538
13,cm280,Certain Memories can be recalled like the epic battle scenes written in the books of epic fantasy authors. ,conv,5,4.5,16,4,63494,21,m,ambi,4,3,english,,0,0,0,12,17,14,38,22,11,23.5891927,,
13,cm281,Some Relationships are like being trapped in a hole for ten years ,conv,5,4.5,17,11,45793,21,m,ambi,4,3,english,,0,0,0,12,17,14,38,22,11,23.5891927,-0.044859856,0.102334184
15,cm315,Divorce is like a hurricane  ,conv,5,4.5,7,17,12823,27,f,right,6,3,english,,0,0,0,17,40,7,53,19,8,18.4195702,0.249648589,0.174498555
16,cm332,Some relationships are like digging graves ,conv,5,4.5,2,11,11217,26,m,right,6,4,bilingual,,0,0,0,11,37,10,37,27,12,34.5091566,0.266508341,0.188593965
16,cm350,Cigarettes are like murderous lightning ,conv,5,4.5,20,15,32886,26,m,right,6,4,bilingual,,0,0,0,11,37,10,37,27,12,34.5091566,0.142485414,0.150970501
17,cm354,Some teenagers act like they have ants in their pants ,conv,4.5,4.5,2,12,30028,28,f,right,7,3,english,,0,0,0,10,41,9,48,24,11,16.7145211,0.009959887,0.102009272
18,cm390,Certain memories are like blueprints for a building.  ,conv,5,4.5,16,4,92890,27,f,right,7,3,non-english,1,3,1,9,11,12,13,26,21,13,17.7804236,,
18,cm392,Some jobs are like traps for mice.  ,conv,5,4.5,18,1,49349,27,f,right,7,3,non-english,1,3,1,9,11,12,13,26,21,13,17.7804236,-0.09371554,0.170679223
19,cm407,Some computer programs are like a 1000-piece puzzle for a 5-year old. ,conv,4.5,4.5,11,7,186853,33,f,right,7,2,non-english,2.5,1.5,0.4,14,13,36,10,41,19,10,17.8917509,0.192699184,0.175001176
19,cm411,Love is live driving on highway under a snow storm. ,conv,5,4.5,15,3,51939,33,f,right,7,2,non-english,2.5,1.5,0.4,14,13,36,10,41,19,10,17.8917509,-0.036231497,0.078673786
19,cm412,"Cigarettes are like a lifetime of sex, drugs and rock and roll. ",conv,5,4.5,16,15,122221,33,f,right,7,2,non-english,2.5,1.5,0.4,14,13,36,10,41,19,10,17.8917509,0.016412876,0.01530991
19,cm413,Education is like a bank account in Sweden. ,conv,5,4.5,17,19,106700,33,f,right,7,2,non-english,2.5,1.5,0.4,14,13,36,10,41,19,10,17.8917509,-0.006646674,0.155126096
20,cm434,Her house is like a military dormitory. ,conv,3,4.5,16,22,58568,45,f,right,6,3,non-english,2.5,1.5,0.4,11,17,24,14,39,22,11,13.2096799,0.063254751,0.185788065
23,cm487,The woman's smile was like honey to Buzz the Cherios bee.  ,conv,5,4.5,3,10,67651,19,f,right,4,2,english,,0,0,0,12,-9,10,35,27,6,18.9884451,0.084141723,0.038112803
23,cm488,"Divorce is like an earthquake, even when its expected , it still manages to shatter and divide those in its wake.  ",conv,5,4.5,4,17,57727,19,f,right,4,2,english,,0,0,0,12,-9,10,35,27,6,18.9884451,0.192417631,0.279407983
23,cm491,"The Professor droned on and and on, it was like watching the static fuzz when the T.V. goes out for an hour.  ",conv,4.5,4.5,7,2,47128,19,f,right,4,2,english,,0,0,0,12,-9,10,35,27,6,18.9884451,,
23,cm496,Her house was as orderly as words on a page.  ,conv,5,4.5,12,22,25135,19,f,right,4,2,english,,0,0,0,12,-9,10,35,27,6,18.9884451,0.109728096,0.418434279
24,cm519,Some old men are like trying to convince a child to do their homework  ,conv,4.5,4.5,13,6,73307,23,m,right,6,3,english,,0,0,0,12,20,6,42,21,7,16.0651106,0.131409384,0.131284088
24,cm528,Education is like conducting a survey with rewards at the end of it ,conv,5,4.5,22,19,52480,23,m,right,6,3,english,,0,0,0,12,20,6,42,21,7,16.0651106,0.24136019,0.254812862
25,cm532,Some relationships can lose meaning and purpose like one who is lost in a forest. ,conv,5,4.5,4,11,258510,19,f,right,1,3,bilingual,1,3,1,3,20,10,5,15,18,6,17.1918087,0.151666697,0.110312447
25,cm549,Some college lectures are uninteresting as grocery shopping. ,conv,5,4.5,21,2,60126,19,f,right,1,3,bilingual,1,3,1,3,20,10,5,15,18,6,17.1918087,,
26,cm551,some old men are like  the accumulation of mud ,conv,5,4.5,1,6,107634,19,f,right,1,3,non-english,1.5,2.5,0.666666667,4,14,30,8,31,16,8,10.9033841,0.133461286,0.173757826
26,cm569,some jobs are like a crack between a closed door ,conv,5,4.5,19,1,54882,19,f,right,1,3,non-english,1.5,2.5,0.666666667,4,14,30,8,31,16,8,10.9033841,-0.075518585,0.036154797
27,cm589,Her beauty is like money. ,conv,5,4.5,17,14,64316,31,m,left,5,2,english,,0,0,0,21,36,6,52,20,10,15.4741278,0.132984278,0.244149632
28,cm600,Some people are like animals trying to speak to us. ,conv,5,4.5,6,8,91980,21,f,right,3,2,bilingual,2.75,1.25,0.363636364,6,21,4,7,20,13,2,9.6914146,0.412696103,0.52850618
28,cm616,Love is like taking a test you didn't prepare for. ,conv,5,4.5,22,3,52485,21,f,right,3,2,bilingual,2.75,1.25,0.363636364,6,21,4,7,20,13,2,9.6914146,0.106421289,0.14522513
29,cm617,Divorce is like a shipwreck  ,conv,5,4.5,1,17,61628,22,m,right,4,3,bilingual,2.25,1.75,0.444444444,5,12,-3,14,40,19,9,29.3434821,0.211610404,0.211932757
29,cm622,Education is like a train that goes on forever and stops at every interesting place you would wanna look at ,conv,5,4.5,6,19,72590,22,m,right,4,3,bilingual,2.25,1.75,0.444444444,5,12,-3,14,40,19,9,29.3434821,0.231505951,0.260598205
29,cm623,Her smile is like looking at the sky on shrooms ,conv,5,4.5,7,10,35941,22,m,right,4,3,bilingual,2.25,1.75,0.444444444,5,12,-3,14,40,19,9,29.3434821,-0.023447255,0.002636228
29,cm624,His Temper is like a whitehead on a humid day ,conv,5,4.5,8,13,34852,22,m,right,4,3,bilingual,2.25,1.75,0.444444444,5,12,-3,14,40,19,9,29.3434821,0.043166738,0.111237147
29,cm627,Some teenagers are like roller coasters on MDMA ,conv,5,4.5,11,12,39307,22,m,right,4,3,bilingual,2.25,1.75,0.444444444,5,12,-3,14,40,19,9,29.3434821,0.068602179,0.1697686
29,cm630,"Cigarettes are like using tanning beds, you may use them everyday to get yourself the complexion you want but it may explode on you one day ",conv,4.5,4.5,14,15,62362,22,m,right,4,3,bilingual,2.25,1.75,0.444444444,5,12,-3,14,40,19,9,29.3434821,0.011372347,0.146958935
29,cm636,Some relationships are like living in a retirement home ,conv,5,4.5,20,11,17254,22,m,right,4,3,bilingual,2.25,1.75,0.444444444,5,12,-3,14,40,19,9,29.3434821,0.19107627,0.146430107
29,cm638,Her house is like the guest room on the day an Airbnb-er arrives ,conv,3,4.5,22,22,78760,22,m,right,4,3,bilingual,2.25,1.75,0.444444444,5,12,-3,14,40,19,9,29.3434821,0.132504623,0.316004784
32,cm686,Divorce is a drug. ,conv,5,4.5,4,17,16421,20,f,right,2,3,english,,0,0,0,9,18,10,49,19,3,18.3935143,0.124489884,0.15036507
33,cm706,This software is like a printer. Only works when it wants to.  ,conv,3.5,4.5,2,7,146560,27,f,right,6,2,english,,0,0,0,13,25,6,37,21,7,14.4058574,0.459221951,0.321858993
33,cm709,"Friendship, a form of emotional handcuffing and you've lost the key.  ",conv,5,4.5,5,20,46218,27,f,right,6,2,english,,0,0,0,13,25,6,37,21,7,14.4058574,0.149688448,0.286135924
33,cm725,This relationship is as rewarding as an empty box of candy.  ,conv,5,4.5,21,11,30781,27,f,right,6,2,english,,0,0,0,13,25,6,37,21,7,14.4058574,0.221762944,0.171344186
34,cm727,Our friendship is like superglue. Our friendship is like we are immortal beings. Friendship is like two soulmates or lovers . Friendship is like when a fan meets another fan.  ,conv,5,4.5,1,20,279440,21,f,right,3,3,non-english,1.25,2.75,0.8,5,12,-1,11,29,19,9,14.3979614,0.120347986,0.090225171
35,cm755,college is like a box of crayons ,conv,5,4.5,7,16,49019,20,f,right,3,3,non-english,2,2,0.5,10,12,-7,9,30,12,3,16.0887986,-0.017533267,0.034871399
35,cm756,using some computer programs are like trying to get a job without experience ,conv,4.5,4.5,8,7,64654,20,f,right,3,3,non-english,2,2,0.5,10,12,-7,9,30,12,3,16.0887986,0.474267066,0.5234645
35,cm769,some college lectures is as boring as monday mornings  ,conv,5,4.5,21,2,17749,20,f,right,3,3,non-english,2,2,0.5,10,12,-7,9,30,12,3,16.0887986,,
36,cm778,Some people are like taking college math course ,conv,5,4.5,8,8,42522,20,f,right,3,2,bilingual,2.25,1.75,0.444444444,3,6,18,10,23,23,10,14.8934089,0.389611704,0.377114787
37,cm814,some college lectures are like long road trips  ,conv,5,4.5,22,2,31911,19,f,right,3,3,english,,0,0,0,10,6,14,43,19,10,21.3231647,,
38,cm827,Her smile is like an invitation. ,conv,5,4.5,13,10,20159,19,m,right,3,4,english,,0,0,0,14,4,11,56,24,11,13.2080998,-0.037847269,-0.125811167
39,cm837,Her beauty is like an evil majic ,conv,5,4.5,1,14,140928,36,f,right,7,3,non-english,1,3,1,10,14,22,6,29,13,12,18.4298341,-0.032244925,0.06716249
40,cm868,Talking to some people is like solving math problems.,conv,5,4.5,10,8,67288,24,m,right,6,3,bilingual,1,3,1,17,8,15,8,40,18,12,14.9581525,0.516691649,0.477227191
40,cm870,Being in some relationships is like living with dead people.,conv,5,4.5,12,11,51943,24,m,right,6,3,bilingual,1,3,1,17,8,15,8,40,18,12,14.9581525,0.256627111,0.29211681
41,cm890,Some people are wearing a white mask all the time  ,conv,4.5,4.5,10,8,79190,38,f,right,6,3,non-english,2.25,1.75,0.444444444,5,19,32,12,49,25,6,13.2357358,0.353272905,0.356903999
41,cm891,Love is like trying to survive in anforest  ,conv,5,4.5,11,3,173785,38,f,right,6,3,non-english,2.25,1.75,0.444444444,5,19,32,12,49,25,6,13.2357358,0.066606241,0.132403105
41,cm896,Some property is like water in a dessert ,conv,5,4.5,16,21,53254,38,f,right,6,3,non-english,2.25,1.75,0.444444444,5,19,32,12,49,25,6,13.2357358,0.093947798,0.036664061
41,cm898,"I believe some teachers are really part foxes, part owls, part dolphins, but they look human to avoid akward questions ",conv,5,4.5,18,9,381499,38,f,right,6,3,non-english,2.25,1.75,0.444444444,5,19,32,12,49,25,6,13.2357358,0.128108073,0.204108159
41,cm900,Her house seems to be ironed ,conv,5,4.5,20,22,52658,38,f,right,6,3,non-english,2.25,1.75,0.444444444,5,19,32,12,49,25,6,13.2357358,0.149198379,0.337399067
42,cm908,her house is like a porcelain teacup  ,conv,5,4.5,6,22,48395,38,f,right,6,2,non-english,2.25,1.75,0.444444444,8,16,5,14,36,16,7,20.1577789,0.086976876,0.347289816
42,cm916,Some relationships are like a hole in your pocket ,conv,5,4.5,14,11,78220,38,f,right,6,2,non-english,2.25,1.75,0.444444444,8,16,5,14,36,16,7,20.1577789,0.158923247,0.028383382
42,cm921,Friendship is like melting  the ends of two pieces of gold/ steel together ,conv,5,4.5,19,20,194608,38,f,right,6,2,non-english,2.25,1.75,0.444444444,8,16,5,14,36,16,7,20.1577789,-0.014182093,0.092433781
43,cm932,Love is like driving through an unfamiliar countryside at night. ,conv,5,4.5,8,3,81342,26,f,right,6,3,english,,0,0,0,11,21,10,56,26,11,26.4825233,-0.038819044,0.067059793
44,cm963,Some college lectures are like waiting for water to boil when the stove is turned off. ,conv,5,4.5,17,2,36890,24,f,right,6,2,english,,0,0,0,8,26,6,53,20,11,20.7487617,,
45,cm975,Her family is like a warm blanket on a bad day,conv,5,4.5,7,5,65641,20,f,right,3,2,english,,0,0,0,4,38,12,39,23,6,14.9336767,-0.059678566,0.018053548
46,cm998,Some college lectures are like medicines helping you get sleep.,conv,5,4.5,8,2,41883,35,f,right,7,3,non-english,1,3,1,9,24,40,12,43,23,13,17.8372712,,
47,cm1015,Some old men are like rubber bands that never stretch.,conv,5,4.5,3,6,103885,39,f,right,6,4,non-english,1,3,1,12,23,45,12,50,23,11,17.2076007,0.113800516,0.106890043
49,cm1057,The earth is filled with people like chipmonks running on wheels.,conv,5,4.5,1,18,152363,33,f,right,7,3,non-english,1,3,1,12,12,5,13,46,16,11,18.4219381,0.374947729,0.446583588
49,cm1058,Some relationships are like living in an isolated island.,conv,5,4.5,2,11,63575,33,f,right,7,3,non-english,1,3,1,12,12,5,13,46,16,11,18.4219381,0.251432186,0.296484656
50,cm1081,Some relationships make you feel you are living on an wild island.,conv,5,4.5,3,11,103008,29,f,right,6,2,non-english,1.5,2.5,0.666666667,12,18,29,14,53,14,7,18.3753544,0.287026469,0.304118104
52,cm1332,some relationships are like an isolated island in Pacific Ocean,conv,5,4.5,12,11,57379,32,f,right,7,3,non-english,1.5,2.5,0.666666667,11,24,17,7,28,19,7,14.4216494,0.168076414,0.201106845
53,cm1301,Some jobs is like solving 2+2.,conv,4.5,4.5,3,1,64979,17,f,right,1,3,bilingual,1.5,2.5,0.666666667,9,25,44,6,32,12,8,17.8593791,-0.129317675,0.043987791
54,cm1123,certain memories are like research reports,conv,5,4.5,1,4,42616,21,f,right,4,3,non-english,2.5,1.5,0.4,10,13,4,13,44,11,9,13.179676,,
55,cm1152,Some relationships are like trees trying to keep their leaves in the fall.,conv,5,4.5,8,11,60837,17,f,right,1,4,bilingual,2.75,1.25,0.363636364,1,6,20,9,58,14,4,26.9945506,0.105364859,0.020501111
56,cm1179,Some teenagers are like cars without brakes,conv,5,4.5,13,12,52474,19,m,left,1,3,non-english,2.25,1.75,0.444444444,5,15,10,12,34,15,11,10.3124013,0.071208877,0.273087602
59,cm1246,some professor are lights in the darkness of the student's knowledge,conv,5,4.5,14,9,101986,22,f,right,6,4,non-english,2.5,1.5,0.4,12,14,20,12,61,22,7,22.405647,0.052729249,-0.003729725
59,cm1253,divorce puzzles in many pieces what is mean to be one ,conv,5,4.5,21,17,41776,22,f,right,6,4,non-english,2.5,1.5,0.4,12,14,20,12,61,22,7,22.405647,0.188335785,0.117936889
60,cm1258,Her beauty is like a vending machine.,conv,5,4.5,4,14,65867,18,f,right,2,2,english,,0,0,0,7,64,6,32,23,7,18.9134376,0.009242516,0.110768208
60,cm1262,Education is flies to honey.,conv,5,4.5,8,19,59644,18,f,right,2,2,english,,0,0,0,7,64,6,32,23,7,18.9134376,0.048675287,-0.036665634
60,cm1265,Some college lectures are like picking all of the leaves off of a tree.,conv,5,4.5,11,2,33396,18,f,right,2,2,english,,0,0,0,7,64,6,32,23,7,18.9134376,,
61,cm1280,when I am with certain people I feel like I am in a crowded room with loud music and nobody to talk to,conv,4.5,4.5,4,11,75705,21,m,right,3,3,non-english,2.5,1.5,0.4,6,15,3,10,50,16,12,16.6576735,0.117077477,0.195541435
2,cm31,Colleges and beaches are the same thing. ,conv,5,4.25,9,16,70399,22,f,right,4,3,english,,0,0,0,12,-5,8,46,17,6,23.0447936,0.204896249,0.222035629
3,cm57,Certain memories seem like they were directed by Stephen Spielberg ,conv,4.5,4.25,13,4,54435,30,m,left,7,3,english,,0,0,0,16,31,14,52,25,13,17.8412192,,
4,cm82,Some relationships are like a office cubicle job  ,conv,5,4.25,16,11,40640,19,f,right,3,3,english,,0,0,0,3,14,7,54,23,9,16.6758334,0.097558898,0.044793668
9,cm179,Some college lectures are like marathon ,conv,5,4.25,3,2,97394,21,m,right,2,2,bilingual,1,3,1,6,11,0,8,37,24,9,17.303136,,
15,cm323,Some relationships are like being Tom Hanks in Cast Away ,conv,4.5,4.25,15,11,77092,27,f,right,6,3,english,,0,0,0,17,40,7,53,19,8,18.4195702,0.280653562,0.136930124
22,cm465,Cigarettes end you like a random stray bullet at a Walmart. ,conv,5,4.25,3,15,52959,19,f,left,3,2,english,,0,0,0,10,23,10,33,27,12,23.546557,0.243987879,0.196647219
23,cm501,"Some jobs are like being in a mental institute, kept in a paded room and locked in straight jacket with the key thrown away.  ",conv,5,4.25,17,1,63517,19,f,right,4,2,english,,0,0,0,12,-9,10,35,27,6,18.9884451,-0.025836978,0.135879143
27,cm588,Some relationships are like being single. ,conv,4.5,4.25,16,11,52212,31,m,left,5,2,english,,0,0,0,21,36,6,52,20,10,15.4741278,0.199709756,0.163707473
33,cm707,College is the Grand Central Station of any city.  ,conv,5,4.25,3,16,152547,27,f,right,6,2,english,,0,0,0,13,25,6,37,21,7,14.4058574,0.004092172,0.008384707
34,cm733,Some old men are like weed that don't want to be pulled out of the ground.  ,conv,5,4.25,7,6,23185,21,f,right,3,3,non-english,1.25,2.75,0.8,5,12,-1,11,29,19,9,14.3979614,0.132905026,0.152676201
34,cm744,Some college lectures are like reading a 20-page article.  ,conv,3.5,4.25,18,2,106856,21,f,right,3,3,non-english,1.25,2.75,0.8,5,12,-1,11,29,19,9,14.3979614,,
34,cm748,Love is like trying to drive for the first time but getting hit by someone. ,conv,4.5,4.25,22,3,81934,21,f,right,3,3,non-english,1.25,2.75,0.8,5,12,-1,11,29,19,9,14.3979614,0.076136009,0.152744145
35,cm750,some jobs are like a nightmare ,conv,5,4.25,2,1,43781,20,f,right,3,3,non-english,2,2,0.5,10,12,-7,9,30,12,3,16.0887986,-0.144883765,-0.03685676
36,cm788,Friendship is like having a new born puppy ,conv,5,4.25,18,20,35911,20,f,right,3,2,bilingual,2.25,1.75,0.444444444,3,6,18,10,23,23,10,14.8934089,0.145116774,0.191920201
37,cm800,some professors are like grandmother willow  ,conv,4.5,4.25,8,9,18894,19,f,right,3,3,english,,0,0,0,10,6,14,43,19,10,21.3231647,0.101400406,-0.077897825
39,cm838,some old men are like stones with no ears,conv,5,4.25,2,6,75113,36,f,right,7,3,non-english,1,3,1,10,14,22,6,29,13,12,18.4298341,0.132757619,0.177199826
47,cm1028,Some jobs are like a big boss.,conv,4.5,4.25,16,1,150455,39,f,right,6,4,non-english,1,3,1,12,23,45,12,50,23,11,17.2076007,-0.167471341,-0.095424751
51,cm1119,Her beauty made her became magic fair,conv,5,4.25,19,14,26799,19,f,right,2,3,bilingual,1.5,2.5,0.666666667,12,18,0,3,45,26,3,13.179676,0.229701943,0.278283525
58,cm1218,The Earth is like a 24/7 factory in China.,conv,3.5,4.25,8,18,165626,34,f,left,7,3,bilingual,1.25,2.75,0.8,3,24,55,6,62,19,8,23.0447936,-0.023811833,0.178717515
58,cm1223,Her house is like being in Sheldon's room ,conv,3,4.25,13,22,110281,34,f,left,7,3,bilingual,1.25,2.75,0.8,3,24,55,6,62,19,8,23.0447936,0.18530591,0.29986647
60,cm1256,Some teenagers are like the Earth's rotation on its axis.,conv,5,4.25,2,12,91118,18,f,right,2,2,english,,0,0,0,7,64,6,32,23,7,18.9134376,0.085536004,0.265657817
60,cm1272,Love is like scuba diving.,conv,5,4.25,18,3,132400,18,f,right,2,2,english,,0,0,0,7,64,6,32,23,7,18.9134376,0.018462644,-0.044340153
1,cm16,Colleges are like salads. ,conv,5,4,16,16,91771,19,f,right,4,3,english,,0,0,0,14,10,7,49,20,9,15.5183436,-0.002507788,0.019052715
2,cm23,Cigarettes are the new car crashes. ,conv,5,4,1,15,192660,22,f,right,4,3,english,,0,0,0,12,-5,8,46,17,6,23.0447936,0.160089187,0.223782638
2,cm25,Some jobs make me feel I am in a mental institution. ,conv,5,4,3,1,76217,22,f,right,4,3,english,,0,0,0,12,-5,8,46,17,6,23.0447936,-0.062159214,0.102256613
2,cm39,"Some professors are robots, lol. ",conv,4.5,4,17,9,82376,22,f,right,4,3,english,,0,0,0,12,-5,8,46,17,6,23.0447936,0.195324632,0.09783163
3,cm45,Cigarettes are the aneurisms of addictive substances. ,conv,5,4,1,15,87638,30,m,left,7,3,english,,0,0,0,16,31,14,52,25,13,17.8412192,0.031295284,0.041943176
3,cm58,Some people are as hard to read as Moby Dick. ,conv,5,4,14,8,11581,30,m,left,7,3,english,,0,0,0,16,31,14,52,25,13,17.8412192,0.645176089,0.712502453
5,cm89,Some proffesors are as smart as Da Vinci on Adderral. ,conv,2.5,4,1,9,41528,21,m,right,3,4,english,,0,0,0,7,-11,4,55,27,5,12.6494888,0.581335717,0.518330363
6,cm117,I fancy her house to be like a self-cleaning oven. ,conv,4.5,4,7,22,28591,27,m,right,7,3,english,,0,0,0,13,28,9,52,26,12,21.2986889,0.113176657,0.376668985
7,cm139,Some college lectures feel like you're stuck in a 24 hours non-stop flight. ,conv,5,4,7,2,113863,21,f,left,4,3,english,,0,0,0,15,27,12,60,26,12,23.0550575,,
8,cm161,are like puppies who don't take naps ,conv,5,4,7,12,22880,24,f,right,4,2,english,,0,0,0,7,3,8,30,19,8,17.2241805,0.318462128,0.221070631
8,cm163,are a one way ticket to snooze town ,conv,5,4,9,2,10518,24,f,right,4,2,english,,0,0,0,7,3,8,30,19,8,17.2241805,,
8,cm166,are as dangerous as a train without breaks ,conv,5,4,12,15,13886,24,f,right,4,2,english,,0,0,0,7,3,8,30,19,8,17.2241805,0.109320561,0.224628324
8,cm172,have a path as narrow as a ruler  ,conv,5,4,18,1,25082,24,f,right,4,2,english,,0,0,0,7,3,8,30,19,8,17.2241805,0.105920232,0.158307886
9,cm191,Some people are like mysts ,conv,5,4,15,8,137792,21,m,right,2,2,bilingual,1,3,1,6,11,0,8,37,24,9,17.303136,0.526916365,0.350775961
10,cm202,Some relations are like being with your girlfriend ,conv,2.5,4,4,11,33894,20,m,ambi,2,3,non-english,1.5,2.5,0.666666667,5,20,8,9,33,18,7,12.0285021,0.118728549,0.163775974
11,cm232,Her family is like her security blanket. ,conv,5,4,12,5,44190,21,f,right,3,3,bilingual,,0,0,0,17,18,9,62,19,12,20.6571744,0.090386917,0.31006624
11,cm239,Some old men are like toddlers who refuse to share toys. ,conv,3.5,4,19,6,94518,21,f,right,3,3,bilingual,,0,0,0,17,18,9,62,19,12,20.6571744,0.105438779,0.070638967
12,cm252,Some college lectures are like waiting for water to boil. ,conv,5,4,10,2,26157,20,f,right,2,3,bilingual,1.75,2.25,0.571428571,2,15,11,13,38,20,12,16.0224749,,
13,cm284,Some Teenagers are like perpetual motion machines ,conv,5,4,20,12,56563,21,m,ambi,4,3,english,,0,0,0,12,17,14,38,22,11,23.5891927,0.14452584,0.294732016
15,cm318,Certain memories are like an embordery design ,conv,5,4,10,4,40913,27,f,right,6,3,english,,0,0,0,17,40,7,53,19,8,18.4195702,,
15,cm330,Education is like a clear path out of dark woods ,conv,5,4,22,19,28438,27,f,right,6,3,english,,0,0,0,17,40,7,53,19,8,18.4195702,0.109157212,0.121081103
16,cm333,Her house is like the container store ,conv,4.5,4,3,22,10034,26,m,right,6,4,bilingual,,0,0,0,11,37,10,37,27,12,34.5091566,0.175512446,0.324091443
17,cm358,Some relationships are like being trapped in a cage ,conv,5,4,6,11,97369,28,f,right,7,3,english,,0,0,0,10,41,9,48,24,11,16.7145211,0.268185681,0.16829035
17,cm372,Love can be like a wild animal ,conv,5,4,20,3,15483,28,f,right,7,3,english,,0,0,0,10,41,9,48,24,11,16.7145211,0.027298315,0.083322198
18,cm395,Some old men are like thick sticks. ,conv,5,4,21,6,62539,27,f,right,7,3,non-english,1,3,1,9,11,12,13,26,21,13,17.7804236,0.190894747,0.221518584
20,cm432,The Earth is like a corporate meeting. ,conv,5,4,14,18,48681,45,f,right,6,3,non-english,2.5,1.5,0.4,11,17,24,14,39,22,11,13.2096799,0.021678104,0.168641013
26,cm566,her smile is like the sun for the sunflowers ,conv,5,4,16,10,22637,19,f,right,1,3,non-english,1.5,2.5,0.666666667,4,14,30,8,31,16,8,10.9033841,-0.011139733,-0.043017958
27,cm574,Divorce is like video games. ,conv,5,4,2,17,27181,31,m,left,5,2,english,,0,0,0,21,36,6,52,20,10,15.4741278,-0.010341819,0.013514978
27,cm576,Certain memories have information overload like star wars movies. ,conv,5,4,4,4,113554,31,m,left,5,2,english,,0,0,0,21,36,6,52,20,10,15.4741278,,
28,cm603,Some property are like the children of a dog. ,conv,4.5,4,9,21,107575,21,f,right,3,2,bilingual,2.75,1.25,0.363636364,6,21,4,7,20,13,2,9.6914146,0.00551112,0.093152765
28,cm609,Some relationships are like a dog who's lost its baby. ,conv,5,4,15,11,80059,21,f,right,3,2,bilingual,2.75,1.25,0.363636364,6,21,4,7,20,13,2,9.6914146,0.151492662,0.268784536
29,cm619,The Earth is like the subway  ,conv,5,4,3,18,56458,22,m,right,4,3,bilingual,2.25,1.75,0.444444444,5,12,-3,14,40,19,9,29.3434821,0.03111085,0.16094833
29,cm634,Certain Memories are like those coloadult coloring books  ,conv,5,4,18,4,44433,22,m,right,4,3,bilingual,2.25,1.75,0.444444444,5,12,-3,14,40,19,9,29.3434821,,
29,cm637,"Colleges are like going to a festival, except everyone has duties ",conv,4.5,4,21,16,35215,22,m,right,4,3,bilingual,2.25,1.75,0.444444444,5,12,-3,14,40,19,9,29.3434821,0.157451948,0.174190795
30,cm639,That old man is like a boulder ,conv,5,4,1,6,123009,20,m,left,2,3,english,,0,0,0,9,35,14,41,23,11,23.5710328,0.131367429,-0.004804546
31,cm662,"Like two old dogs, unwilling to move, the old men resisted any attempts to persuade.  ",conv,5,4,2,6,131259,43,f,left,7,3,english,,0,0,0,9,60,12,58,27,10,19.5383723,0.188387309,0.299157875
31,cm672,Those past loves were like being on a deserted island. ,conv,4.5,4,12,11,35886,43,f,left,7,3,english,,0,0,0,9,60,12,58,27,10,19.5383723,0.244344034,0.399033837
31,cm674,Office jobs are as freeing as being in a straightjacket. ,conv,5,4,14,1,32945,43,f,left,7,3,english,,0,0,0,9,60,12,58,27,10,19.5383723,-0.100768013,0.107317221
31,cm679,He is like a teapot you forgot you put on. ,conv,5,4,19,13,28979,43,f,left,7,3,english,,0,0,0,9,60,12,58,27,10,19.5383723,0.121774435,0.209445308
31,cm681,Some people are as mysterious as the Sphinx. ,conv,5,4,21,8,45495,43,f,left,7,3,english,,0,0,0,9,60,12,58,27,10,19.5383723,0.528678237,0.381866718
31,cm682,Those teens are like junebugs. ,conv,5,4,22,12,45929,43,f,left,7,3,english,,0,0,0,9,60,12,58,27,10,19.5383723,,-0.048860121
33,cm713,She is more stoic than a statue.  ,conv,4.5,4,9,8,32366,27,f,right,6,2,english,,0,0,0,13,25,6,37,21,7,14.4058574,-0.033189374,0.039648184
33,cm718,This house is the pearl of the neighborhood.  ,conv,4.5,4,14,21,23152,27,f,right,6,2,english,,0,0,0,13,25,6,37,21,7,14.4058574,-0.051571851,-0.051929918
34,cm736,Her beauty is like how a baby does their puppy eyes and gets whatever they want. ,conv,5,4,10,14,85475,21,f,right,3,3,non-english,1.25,2.75,0.8,5,12,-1,11,29,19,9,14.3979614,0.459723661,0.535794521
35,cm763,certain memories are as intricate as a pattern ,conv,4.5,4,15,4,36902,20,f,right,3,3,non-english,2,2,0.5,10,12,-7,9,30,12,3,16.0887986,,
35,cm766,her smile is like the smell of perfume ,conv,5,4,18,10,26742,20,f,right,3,3,non-english,2,2,0.5,10,12,-7,9,30,12,3,16.0887986,-0.070710569,0.00827344
36,cm771,Some jobs are like walking through a medow of tulips  ,conv,5,4,1,1,49540,20,f,right,3,2,bilingual,2.25,1.75,0.444444444,3,6,18,10,23,23,10,14.8934089,-0.11835307,0.033348651
36,cm773,Some relationships are like accountants jobs  ,conv,4.5,4,3,11,90460,20,f,right,3,2,bilingual,2.25,1.75,0.444444444,3,6,18,10,23,23,10,14.8934089,0.159388772,0.033874907
37,cm810,some computer programs are like stickshift cars  ,conv,4.5,4,18,7,71599,19,f,right,3,3,english,,0,0,0,10,6,14,43,19,10,21.3231647,0.165463493,0.237099185
38,cm818,Cigarettes are like snipers. ,conv,5,4,4,15,29736,19,m,right,3,4,english,,0,0,0,14,4,11,56,24,11,13.2080998,0.157347558,0.156344616
38,cm822,Love is like a box of chocolates. ,conv,5,4,8,3,11709,19,m,right,3,4,english,,0,0,0,14,4,11,56,24,11,13.2080998,-0.02035186,-0.168884638
41,cm889,Some jobs are like golden bird cages ,conv,4.5,4,9,1,61790,38,f,right,6,3,non-english,2.25,1.75,0.444444444,5,19,32,12,49,25,6,13.2357358,0.031227687,0.031632979
41,cm895,Cigarettes are like dormant cobras under your pillow ,conv,5,4,15,15,63393,38,f,right,6,3,non-english,2.25,1.75,0.444444444,5,19,32,12,49,25,6,13.2357358,0.06383133,-0.082560593
41,cm899,Colleges are like mini NATOs ,conv,4.5,4,19,16,24147,38,f,right,6,3,non-english,2.25,1.75,0.444444444,5,19,32,12,49,25,6,13.2357358,-0.020797841,-0.003801401
42,cm912,Some teenagers are like mexican firecrackers  ,conv,5,4,10,12,33350,38,f,right,6,2,non-english,2.25,1.75,0.444444444,8,16,5,14,36,16,7,20.1577789,0.023211494,-0.015280246
42,cm920,Love is like a casino roullete  ,conv,5,4,18,3,40680,38,f,right,6,2,non-english,2.25,1.75,0.444444444,8,16,5,14,36,16,7,20.1577789,-0.035647781,-0.091541039
43,cm929,Some relationships don't feel like relationships at all; they just feel like black holes. ,conv,5,4,5,11,32398,26,f,right,6,3,english,,0,0,0,11,21,10,56,26,11,26.4825233,0.230744203,0.197413348
44,cm948,Some relationships are like the desert--completely desolate. ,conv,5,4,2,11,48106,24,f,right,6,2,english,,0,0,0,8,26,6,53,20,11,20.7487617,0.333547956,0.401671443
44,cm960,Her family is her lighthouse. ,conv,5,4,14,5,35370,24,f,right,6,2,english,,0,0,0,8,26,6,53,20,11,20.7487617,-0.020325539,-0.022104516
44,cm966,Love is like an ocean current during a season change. ,conv,5,4,20,3,28950,24,f,right,6,2,english,,0,0,0,8,26,6,53,20,11,20.7487617,0.11424793,0.261122987
47,cm1017,Her house looks like iit's poped out of a magazine.,conv,4.5,4,5,22,77114,39,f,right,6,4,non-english,1,3,1,12,23,45,12,50,23,11,17.2076007,0.144500573,0.31484208
47,cm1034,Some people carries clouds with them that surround their brain.,conv,5,4,22,8,140329,39,f,right,6,4,non-english,1,3,1,12,23,45,12,50,23,11,17.2076007,0.241587483,0.177576129
48,cm1039,The Earth is a mess chain of lives.,conv,5,4,5,18,41301,28,f,right,7,3,non-english,1,3,1,12,14,5,7,33,12,12,10.3045053,0.193730512,0.21150781
48,cm1047,Friendship is an endless song.,conv,5,4,13,20,16485,28,f,right,7,3,non-english,1,3,1,12,14,5,7,33,12,12,10.3045053,0.050881117,0.108072354
49,cm1062,Some old men are like die-hard myths.,conv,5,4,6,6,137505,33,f,right,7,3,non-english,1,3,1,12,12,5,13,46,16,11,18.4219381,0.125088713,0.17075195
51,cm1104,Some computer pregrams are mist,conv,5,4,4,7,68059,19,f,right,2,3,bilingual,1.5,2.5,0.666666667,12,18,0,3,45,26,3,13.179676,0.183251326,0.147986749
51,cm1106,Some colleges lectures are like annoying people,conv,4.5,4,6,2,65546,19,f,right,2,3,bilingual,1.5,2.5,0.666666667,12,18,0,3,45,26,3,13.179676,,
52,cm1329,cigarettes are like those boams burried in the underground of Vietnam,conv,5,4,9,15,118118,32,f,right,7,3,non-english,1.5,2.5,0.666666667,11,24,17,7,28,19,7,14.4216494,0.299833117,0.341525911
53,cm1305,Friendship is a bridge between people.,conv,5,4,7,20,20169,17,f,right,1,3,bilingual,1.5,2.5,0.666666667,9,25,44,6,32,12,8,17.8593791,0.447217549,0.416008644
53,cm1316,Her beauty is her weapon to nail the things she wants.,conv,5,4,18,14,29039,17,f,right,1,3,bilingual,1.5,2.5,0.666666667,9,25,44,6,32,12,8,17.8593791,0.481369413,0.550564955
53,cm1320,Some professors are wizards.,conv,3,4,22,9,15393,17,f,right,1,3,bilingual,1.5,2.5,0.666666667,9,25,44,6,32,12,8,17.8593791,0.104116182,0.080338326
